Time,Header.seq,Header.stamp.secs,Header.stamp.nsecs,Header.frame_id,imu.header.seq,imu.header.stamp.secs,imu.header.stamp.nsecs,imu.header.frame_id,imu.orientation.x,imu.orientation.y,imu.orientation.z,imu.orientation.w,imu.orientation_covariance,imu.angular_velocity.x,imu.angular_velocity.y,imu.angular_velocity.z,imu.angular_velocity_covariance,imu.linear_acceleration.x,imu.linear_acceleration.y,imu.linear_acceleration.z,imu.linear_acceleration_covariance,mag_field.header.seq,mag_field.header.stamp.secs,mag_field.header.stamp.nsecs,mag_field.header.frame_id,mag_field.magnetic_field.x,mag_field.magnetic_field.y,mag_field.magnetic_field.z,mag_field.magnetic_field_covariance,raw_imu_string
1712109947.3298526,32598,1712109947,329202651,imu1_frame,0,0,0,,0.03712916017522892,-0.00699153106661596,-0.49908434260726264,0.8657293820370794,"(0.0, 0.0, 0.0, 0.0, 0.0, 0.0, 0.0, 0.0, 0.0)",0.038422,-0.022942,0.018442,"(0.0, 0.0, 0.0, 0.0, 0.0, 0.0, 0.0, 0.0, 0.0)",0.619,-0.463,-9.715,"(0.0, 0.0, 0.0, 0.0, 0.0, 0.0, 0.0, 0.0, 0.0)",0,0,0,,0.19,-0.0981,0.0914,"(0.0, 0.0, 0.0, 0.0, 0.0, 0.0, 0.0, 0.0, 0.0)","$VNYMR,-059.875,+001.430,+004.088,+00.1900,-00.0981,+00.0914,+00.619,-00.463,-09.715,+00.038422,-00.022942,+00.018442"
1712109947.35484,32599,1712109947,354273319,imu1_frame,0,0,0,,0.037371585372408755,-0.007404402863901548,-0.49889390866313793,0.8658252752858391,"(0.0, 0.0, 0.0, 0.0, 0.0, 0.0, 0.0, 0.0, 0.0)",0.03132,-0.018786,0.016937,"(0.0, 0.0, 0.0, 0.0, 0.0, 0.0, 0.0, 0.0, 0.0)",0.688,-0.524,-9.753,"(0.0, 0.0, 0.0, 0.0, 0.0, 0.0, 0.0, 0.0, 0.0)",0,0,0,,0.1902,-0.0987,0.0923,"(0.0, 0.0, 0.0, 0.0, 0.0, 0.0, 0.0, 0.0, 0.0)","$VNYMR,-059.851,+001.402,+004.136,+00.1902,-00.0987,+00.0923,+00.688,-00.524,-09.753,+00.031320,-00.018786,+00.016937"
1712109947.38009,32600,1712109947,379413366,imu1_frame,0,0,0,,0.0376715470695166,-0.007770068130697404,-0.4987123055446758,0.8659136890481337,"(0.0, 0.0, 0.0, 0.0, 0.0, 0.0, 0.0, 0.0, 0.0)",0.035341,-0.014061,0.016387,"(0.0, 0.0, 0.0, 0.0, 0.0, 0.0, 0.0, 0.0, 0.0)",0.801,-0.577,-9.646,"(0.0, 0.0, 0.0, 0.0, 0.0, 0.0, 0.0, 0.0, 0.0)",0,0,0,,0.1902,-0.0994,0.092,"(0.0, 0.0, 0.0, 0.0, 0.0, 0.0, 0.0, 0.0, 0.0)","$VNYMR,-059.828,+001.382,+004.187,+00.1902,-00.0994,+00.0920,+00.801,-00.577,-09.646,+00.035341,-00.014061,+00.016387"
1712109947.4050853,32601,1712109947,404292345,imu1_frame,0,0,0,,0.038047332615156484,-0.008109114769823997,-0.4985391670629916,0.8659938461921425,"(0.0, 0.0, 0.0, 0.0, 0.0, 0.0, 0.0, 0.0, 0.0)",0.038239,-0.00853,0.015705,"(0.0, 0.0, 0.0, 0.0, 0.0, 0.0, 0.0, 0.0, 0.0)",0.83,-0.457,-9.685,"(0.0, 0.0, 0.0, 0.0, 0.0, 0.0, 0.0, 0.0, 0.0)",0,0,0,,0.1889,-0.0976,0.0947,"(0.0, 0.0, 0.0, 0.0, 0.0, 0.0, 0.0, 0.0, 0.0)","$VNYMR,-059.806,+001.369,+004.244,+00.1889,-00.0976,+00.0947,+00.830,-00.457,-09.685,+00.038239,-00.008530,+00.015705"
1712109947.4300015,32602,1712109947,429318428,imu1_frame,0,0,0,,0.038510813498653186,-0.008418297657362767,-0.49837469164137876,0.8660650762151679,"(0.0, 0.0, 0.0, 0.0, 0.0, 0.0, 0.0, 0.0, 0.0)",0.053167,-0.00386,0.015779,"(0.0, 0.0, 0.0, 0.0, 0.0, 0.0, 0.0, 0.0, 0.0)",0.835,-0.514,-9.574,"(0.0, 0.0, 0.0, 0.0, 0.0, 0.0, 0.0, 0.0, 0.0)",0,0,0,,0.1892,-0.1023,0.0945,"(0.0, 0.0, 0.0, 0.0, 0.0, 0.0, 0.0, 0.0, 0.0)","$VNYMR,-059.785,+001.364,+004.308,+00.1892,-00.1023,+00.0945,+00.835,-00.514,-09.574,+00.053167,-00.003860,+00.015779"
1712109947.4548945,32603,1712109947,454298734,imu1_frame,0,0,0,,0.03902296695634443,-0.008695656826264993,-0.49822631933456685,0.8661247764177021,"(0.0, 0.0, 0.0, 0.0, 0.0, 0.0, 0.0, 0.0, 0.0)",0.04889,0.000352,0.012706,"(0.0, 0.0, 0.0, 0.0, 0.0, 0.0, 0.0, 0.0, 0.0)",0.573,-0.722,-9.924,"(0.0, 0.0, 0.0, 0.0, 0.0, 0.0, 0.0, 0.0, 0.0)",0,0,0,,0.1889,-0.0981,0.095,"(0.0, 0.0, 0.0, 0.0, 0.0, 0.0, 0.0, 0.0, 0.0)","$VNYMR,-059.766,+001.365,+004.375,+00.1889,-00.0981,+00.0950,+00.573,-00.722,-09.924,+00.048890,+00.000352,+00.012706"
1712109947.4799547,32604,1712109947,479317426,imu1_frame,0,0,0,,0.039558017749525304,-0.008915556817718556,-0.4980795465858735,0.8661826835899974,"(0.0, 0.0, 0.0, 0.0, 0.0, 0.0, 0.0, 0.0, 0.0)",0.042614,0.004309,0.011814,"(0.0, 0.0, 0.0, 0.0, 0.0, 0.0, 0.0, 0.0, 0.0)",0.557,-0.889,-9.993,"(0.0, 0.0, 0.0, 0.0, 0.0, 0.0, 0.0, 0.0, 0.0)",0,0,0,,0.1882,-0.0989,0.0949,"(0.0, 0.0, 0.0, 0.0, 0.0, 0.0, 0.0, 0.0, 0.0)","$VNYMR,-059.747,+001.373,+004.441,+00.1882,-00.0989,+00.0949,+00.557,-00.889,-09.993,+00.042614,+00.004309,+00.011814"
1712109947.5050254,32605,1712109947,504314661,imu1_frame,0,0,0,,0.039973214400205515,-0.009046630715008809,-0.4979420677247061,0.8662413045989354,"(0.0, 0.0, 0.0, 0.0, 0.0, 0.0, 0.0, 0.0, 0.0)",0.026717,0.007373,0.01222,"(0.0, 0.0, 0.0, 0.0, 0.0, 0.0, 0.0, 0.0, 0.0)",0.273,-0.927,-10.322,"(0.0, 0.0, 0.0, 0.0, 0.0, 0.0, 0.0, 0.0, 0.0)",0,0,0,,0.1885,-0.0974,0.0918,"(0.0, 0.0, 0.0, 0.0, 0.0, 0.0, 0.0, 0.0, 0.0)","$VNYMR,-059.729,+001.383,+004.490,+00.1885,-00.0974,+00.0918,+00.273,-00.927,-10.322,+00.026717,+00.007373,+00.012220"
1712109947.5299156,32606,1712109947,529280424,imu1_frame,0,0,0,,0.04018882009958695,-0.009052016510755913,-0.49779182631187435,0.8663176192327967,"(0.0, 0.0, 0.0, 0.0, 0.0, 0.0, 0.0, 0.0, 0.0)",0.004282,0.008589,0.014717,"(0.0, 0.0, 0.0, 0.0, 0.0, 0.0, 0.0, 0.0, 0.0)",0.119,-1.108,-10.487,"(0.0, 0.0, 0.0, 0.0, 0.0, 0.0, 0.0, 0.0, 0.0)",0,0,0,,0.1887,-0.101,0.0955,"(0.0, 0.0, 0.0, 0.0, 0.0, 0.0, 0.0, 0.0, 0.0)","$VNYMR,-059.709,+001.394,+004.512,+00.1887,-00.1010,+00.0955,+00.119,-01.108,-10.487,+00.004282,+00.008589,+00.014717"
1712109947.5548463,32607,1712109947,554246902,imu1_frame,0,0,0,,0.04010318246511478,-0.008863794947102831,-0.4976377172769148,0.8664120672282485,"(0.0, 0.0, 0.0, 0.0, 0.0, 0.0, 0.0, 0.0, 0.0)",-0.02726,0.011998,0.01392,"(0.0, 0.0, 0.0, 0.0, 0.0, 0.0, 0.0, 0.0, 0.0)",-0.021,-1.552,-10.502,"(0.0, 0.0, 0.0, 0.0, 0.0, 0.0, 0.0, 0.0, 0.0)",0,0,0,,0.1882,-0.0989,0.0938,"(0.0, 0.0, 0.0, 0.0, 0.0, 0.0, 0.0, 0.0, 0.0)","$VNYMR,-059.688,+001.407,+004.493,+00.1882,-00.0989,+00.0938,-00.021,-01.552,-10.502,-00.027260,+00.011998,+00.013920"
1712109947.5798554,32608,1712109947,579255819,imu1_frame,0,0,0,,0.03959512347197712,-0.00841301289859488,-0.4974882673255868,0.8665257476178032,"(0.0, 0.0, 0.0, 0.0, 0.0, 0.0, 0.0, 0.0, 0.0)",-0.071037,0.014632,0.016161,"(0.0, 0.0, 0.0, 0.0, 0.0, 0.0, 0.0, 0.0, 0.0)",-0.302,-1.664,-10.721,"(0.0, 0.0, 0.0, 0.0, 0.0, 0.0, 0.0, 0.0, 0.0)",0,0,0,,0.1872,-0.0984,0.0963,"(0.0, 0.0, 0.0, 0.0, 0.0, 0.0, 0.0, 0.0, 0.0)","$VNYMR,-059.667,+001.422,+004.417,+00.1872,-00.0984,+00.0963,-00.302,-01.664,-10.721,-00.071037,+00.014632,+00.016161"
1712109947.6048374,32609,1712109947,604179859,imu1_frame,0,0,0,,0.03865194700578323,-0.007650235406228506,-0.4972985730445647,0.8666842736191374,"(0.0, 0.0, 0.0, 0.0, 0.0, 0.0, 0.0, 0.0, 0.0)",-0.117837,0.019728,0.018581,"(0.0, 0.0, 0.0, 0.0, 0.0, 0.0, 0.0, 0.0, 0.0)",-0.155,-1.712,-10.611,"(0.0, 0.0, 0.0, 0.0, 0.0, 0.0, 0.0, 0.0, 0.0)",0,0,0,,0.1874,-0.1015,0.0966,"(0.0, 0.0, 0.0, 0.0, 0.0, 0.0, 0.0, 0.0, 0.0)","$VNYMR,-059.640,+001.443,+004.280,+00.1874,-00.1015,+00.0966,-00.155,-01.712,-10.611,-00.117837,+00.019728,+00.018581"
1712109947.6299145,32610,1712109947,629216432,imu1_frame,0,0,0,,0.03726875160159638,-0.006514428248988397,-0.4970989872795011,0.8668686170489402,"(0.0, 0.0, 0.0, 0.0, 0.0, 0.0, 0.0, 0.0, 0.0)",-0.160303,0.028585,0.017002,"(0.0, 0.0, 0.0, 0.0, 0.0, 0.0, 0.0, 0.0, 0.0)",0.112,-1.761,-10.681,"(0.0, 0.0, 0.0, 0.0, 0.0, 0.0, 0.0, 0.0, 0.0)",0,0,0,,0.187,-0.1017,0.0943,"(0.0, 0.0, 0.0, 0.0, 0.0, 0.0, 0.0, 0.0, 0.0)","$VNYMR,-059.611,+001.476,+004.078,+00.1870,-00.1017,+00.0943,+00.112,-01.761,-10.681,-00.160303,+00.028585,+00.017002"
1712109947.654811,32611,1712109947,654204607,imu1_frame,0,0,0,,0.0355778978369049,-0.005073341870172334,-0.49691675983741046,0.8670537516097055,"(0.0, 0.0, 0.0, 0.0, 0.0, 0.0, 0.0, 0.0, 0.0)",-0.180079,0.038606,0.016456,"(0.0, 0.0, 0.0, 0.0, 0.0, 0.0, 0.0, 0.0, 0.0)",-0.066,-1.447,-10.314,"(0.0, 0.0, 0.0, 0.0, 0.0, 0.0, 0.0, 0.0, 0.0)",0,0,0,,0.1865,-0.0981,0.0951,"(0.0, 0.0, 0.0, 0.0, 0.0, 0.0, 0.0, 0.0, 0.0)","$VNYMR,-059.584,+001.522,+003.828,+00.1865,-00.0981,+00.0951,-00.066,-01.447,-10.314,-00.180079,+00.038606,+00.016456"
1712109947.6796799,32612,1712109947,679134368,imu1_frame,0,0,0,,0.033888229098893705,-0.0035257604725411566,-0.4967856159976673,0.8672042485363237,"(0.0, 0.0, 0.0, 0.0, 0.0, 0.0, 0.0, 0.0, 0.0)",-0.174017,0.042813,0.011079,"(0.0, 0.0, 0.0, 0.0, 0.0, 0.0, 0.0, 0.0, 0.0)",0.235,-1.23,-10.225,"(0.0, 0.0, 0.0, 0.0, 0.0, 0.0, 0.0, 0.0, 0.0)",0,0,0,,0.1872,-0.1012,0.0963,"(0.0, 0.0, 0.0, 0.0, 0.0, 0.0, 0.0, 0.0, 0.0)","$VNYMR,-059.564,+001.579,+003.572,+00.1872,-00.1012,+00.0963,+00.235,-01.230,-10.225,-00.174017,+00.042813,+00.011079"
1712109947.7047946,32613,1712109947,704187870,imu1_frame,0,0,0,,0.03241299034515396,-0.002043319338292004,-0.4966958276147144,0.8673168266170679,"(0.0, 0.0, 0.0, 0.0, 0.0, 0.0, 0.0, 0.0, 0.0)",-0.151673,0.044682,0.004449,"(0.0, 0.0, 0.0, 0.0, 0.0, 0.0, 0.0, 0.0, 0.0)",0.428,-0.878,-9.876,"(0.0, 0.0, 0.0, 0.0, 0.0, 0.0, 0.0, 0.0, 0.0)",0,0,0,,0.1862,-0.102,0.0976,"(0.0, 0.0, 0.0, 0.0, 0.0, 0.0, 0.0, 0.0, 0.0)","$VNYMR,-059.550,+001.642,+003.341,+00.1862,-00.1020,+00.0976,+00.428,-00.878,-09.876,-00.151673,+00.044682,+00.004449"
1712109947.7298377,32614,1712109947,729181289,imu1_frame,0,0,0,,0.03123787067064429,-0.0007061480146761199,-0.4966854084638718,0.8673680313511806,"(0.0, 0.0, 0.0, 0.0, 0.0, 0.0, 0.0, 0.0, 0.0)",-0.127243,0.046468,-0.003685,"(0.0, 0.0, 0.0, 0.0, 0.0, 0.0, 0.0, 0.0, 0.0)",0.479,-0.553,-9.707,"(0.0, 0.0, 0.0, 0.0, 0.0, 0.0, 0.0, 0.0, 0.0)",0,0,0,,0.1867,-0.1012,0.0946,"(0.0, 0.0, 0.0, 0.0, 0.0, 0.0, 0.0, 0.0, 0.0)","$VNYMR,-059.547,+001.708,+003.148,+00.1867,-00.1012,+00.0946,+00.479,-00.553,-09.707,-00.127243,+00.046468,-00.003685"
1712109947.754783,32615,1712109947,754199743,imu1_frame,0,0,0,,0.030384896741386745,0.00045573375842598504,-0.4966947671129521,0.8673931396312559,"(0.0, 0.0, 0.0, 0.0, 0.0, 0.0, 0.0, 0.0, 0.0)",-0.098273,0.046019,-0.005727,"(0.0, 0.0, 0.0, 0.0, 0.0, 0.0, 0.0, 0.0, 0.0)",0.457,0.018,-9.469,"(0.0, 0.0, 0.0, 0.0, 0.0, 0.0, 0.0, 0.0, 0.0)",0,0,0,,0.1864,-0.1007,0.0973,"(0.0, 0.0, 0.0, 0.0, 0.0, 0.0, 0.0, 0.0, 0.0)","$VNYMR,-059.547,+001.775,+002.997,+00.1864,-00.1007,+00.0973,+00.457,+00.018,-09.469,-00.098273,+00.046019,-00.005727"
1712109947.779736,32616,1712109947,779138803,imu1_frame,0,0,0,,0.02975256104699916,0.0014395091646298066,-0.49674700219077855,0.8673840722188669,"(0.0, 0.0, 0.0, 0.0, 0.0, 0.0, 0.0, 0.0, 0.0)",-0.073459,0.042378,-0.007621,"(0.0, 0.0, 0.0, 0.0, 0.0, 0.0, 0.0, 0.0, 0.0)",0.653,0.492,-9.35,"(0.0, 0.0, 0.0, 0.0, 0.0, 0.0, 0.0, 0.0, 0.0)",0,0,0,,0.1857,-0.1014,0.0973,"(0.0, 0.0, 0.0, 0.0, 0.0, 0.0, 0.0, 0.0, 0.0)","$VNYMR,-059.553,+001.837,+002.878,+00.1857,-00.1014,+00.0973,+00.653,+00.492,-09.350,-00.073459,+00.042378,-00.007621"
1712109947.8048265,32617,1712109947,804164648,imu1_frame,0,0,0,,0.02930086970292834,0.0023000901779724626,-0.4967903045898294,0.8673727929128112,"(0.0, 0.0, 0.0, 0.0, 0.0, 0.0, 0.0, 0.0, 0.0)",-0.059112,0.040204,-0.002702,"(0.0, 0.0, 0.0, 0.0, 0.0, 0.0, 0.0, 0.0, 0.0)",0.74,0.596,-9.314,"(0.0, 0.0, 0.0, 0.0, 0.0, 0.0, 0.0, 0.0, 0.0)",0,0,0,,0.1852,-0.103,0.0976,"(0.0, 0.0, 0.0, 0.0, 0.0, 0.0, 0.0, 0.0, 0.0)","$VNYMR,-059.558,+001.897,+002.784,+00.1852,-00.1030,+00.0976,+00.740,+00.596,-09.314,-00.059112,+00.040204,-00.002702"
1712109947.829729,32618,1712109947,829107761,imu1_frame,0,0,0,,0.029026311766705695,0.0030516235083919013,-0.49675724381239783,0.8673986404987591,"(0.0, 0.0, 0.0, 0.0, 0.0, 0.0, 0.0, 0.0, 0.0)",-0.040865,0.040932,0.003847,"(0.0, 0.0, 0.0, 0.0, 0.0, 0.0, 0.0, 0.0, 0.0)",0.87,0.634,-8.975,"(0.0, 0.0, 0.0, 0.0, 0.0, 0.0, 0.0, 0.0, 0.0)",0,0,0,,0.1855,-0.0991,0.0936,"(0.0, 0.0, 0.0, 0.0, 0.0, 0.0, 0.0, 0.0, 0.0)","$VNYMR,-059.553,+001.956,+002.714,+00.1855,-00.0991,+00.0936,+00.870,+00.634,-08.975,-00.040865,+00.040932,+00.003847"
1712109947.8546581,32619,1712109947,854073286,imu1_frame,0,0,0,,0.029059761133061426,0.0036578178332027887,-0.49669460886073047,0.8674310440491942,"(0.0, 0.0, 0.0, 0.0, 0.0, 0.0, 0.0, 0.0, 0.0)",-0.008847,0.044591,0.005497,"(0.0, 0.0, 0.0, 0.0, 0.0, 0.0, 0.0, 0.0, 0.0)",1.023,0.559,-9.02,"(0.0, 0.0, 0.0, 0.0, 0.0, 0.0, 0.0, 0.0, 0.0)",0,0,0,,0.186,-0.1009,0.0939,"(0.0, 0.0, 0.0, 0.0, 0.0, 0.0, 0.0, 0.0, 0.0)","$VNYMR,-059.544,+002.018,+002.683,+00.1860,-00.1009,+00.0939,+01.023,+00.559,-09.020,-00.008847,+00.044591,+00.005497"
1712109947.8796988,32620,1712109947,879079341,imu1_frame,0,0,0,,0.02940976371948264,0.004134404202196651,-0.49658803384235667,0.8674781248794924,"(0.0, 0.0, 0.0, 0.0, 0.0, 0.0, 0.0, 0.0, 0.0)",0.022101,0.045421,0.011396,"(0.0, 0.0, 0.0, 0.0, 0.0, 0.0, 0.0, 0.0, 0.0)",0.891,0.473,-8.987,"(0.0, 0.0, 0.0, 0.0, 0.0, 0.0, 0.0, 0.0, 0.0)",0,0,0,,0.1855,-0.1028,0.0936,"(0.0, 0.0, 0.0, 0.0, 0.0, 0.0, 0.0, 0.0, 0.0)","$VNYMR,-059.529,+002.085,+002.691,+00.1855,-00.1028,+00.0936,+00.891,+00.473,-08.987,+00.022101,+00.045421,+00.011396"
1712109947.9046361,32621,1712109947,904038429,imu1_frame,0,0,0,,0.030050322511889695,0.0044361066189384304,-0.49643737097200386,0.8675409130279692,"(0.0, 0.0, 0.0, 0.0, 0.0, 0.0, 0.0, 0.0, 0.0)",0.04398,0.046753,0.014293,"(0.0, 0.0, 0.0, 0.0, 0.0, 0.0, 0.0, 0.0, 0.0)",1.161,0.091,-9.268,"(0.0, 0.0, 0.0, 0.0, 0.0, 0.0, 0.0, 0.0, 0.0)",0,0,0,,0.1842,-0.1002,0.0949,"(0.0, 0.0, 0.0, 0.0, 0.0, 0.0, 0.0, 0.0, 0.0)","$VNYMR,-059.508,+002.151,+002.738,+00.1842,-00.1002,+00.0949,+01.161,+00.091,-09.268,+00.043980,+00.046753,+00.014293"
1712109947.9304163,32622,1712109947,929924249,imu1_frame,0,0,0,,0.03088964636460332,0.004594853180286301,-0.4962649860869404,0.8676092326939882,"(0.0, 0.0, 0.0, 0.0, 0.0, 0.0, 0.0, 0.0, 0.0)",0.061604,0.044876,0.016038,"(0.0, 0.0, 0.0, 0.0, 0.0, 0.0, 0.0, 0.0, 0.0)",1.146,-0.053,-9.107,"(0.0, 0.0, 0.0, 0.0, 0.0, 0.0, 0.0, 0.0, 0.0)",0,0,0,,0.1842,-0.102,0.0955,"(0.0, 0.0, 0.0, 0.0, 0.0, 0.0, 0.0, 0.0, 0.0)","$VNYMR,-059.484,+002.214,+002.813,+00.1842,-00.1020,+00.0955,+01.146,-00.053,-09.107,+00.061604,+00.044876,+00.016038"
1712109947.9544501,32623,1712109947,953960657,imu1_frame,0,0,0,,0.031971080803673835,0.004615962257106995,-0.49607902117956043,0.8676762919604382,"(0.0, 0.0, 0.0, 0.0, 0.0, 0.0, 0.0, 0.0, 0.0)",0.085558,0.045564,0.016053,"(0.0, 0.0, 0.0, 0.0, 0.0, 0.0, 0.0, 0.0, 0.0)",1.307,0.067,-8.953,"(0.0, 0.0, 0.0, 0.0, 0.0, 0.0, 0.0, 0.0, 0.0)",0,0,0,,0.184,-0.0996,0.0957,"(0.0, 0.0, 0.0, 0.0, 0.0, 0.0, 0.0, 0.0, 0.0)","$VNYMR,-059.458,+002.277,+002.920,+00.1840,-00.0996,+00.0957,+01.307,+00.067,-08.953,+00.085558,+00.045564,+00.016053"
1712109947.9806385,32624,1712109947,980009317,imu1_frame,0,0,0,,0.033298153954085044,0.004556056805417241,-0.49593306173658425,0.867710132225165,"(0.0, 0.0, 0.0, 0.0, 0.0, 0.0, 0.0, 0.0, 0.0)",0.104691,0.048277,0.010396,"(0.0, 0.0, 0.0, 0.0, 0.0, 0.0, 0.0, 0.0, 0.0)",1.05,0.065,-9.013,"(0.0, 0.0, 0.0, 0.0, 0.0, 0.0, 0.0, 0.0, 0.0)",0,0,0,,0.1842,-0.1012,0.0955,"(0.0, 0.0, 0.0, 0.0, 0.0, 0.0, 0.0, 0.0, 0.0)","$VNYMR,-059.437,+002.346,+003.056,+00.1842,-00.1012,+00.0955,+01.050,+00.065,-09.013,+00.104691,+00.048277,+00.010396"
1712109948.0046332,32625,1712109948,3983020,imu1_frame,0,0,0,,0.03480602763296382,0.004441514825600332,-0.49584189747609675,0.8677036510778158,"(0.0, 0.0, 0.0, 0.0, 0.0, 0.0, 0.0, 0.0, 0.0)",0.10854,0.050325,0.002214,"(0.0, 0.0, 0.0, 0.0, 0.0, 0.0, 0.0, 0.0, 0.0)",1.135,-0.383,-9.425,"(0.0, 0.0, 0.0, 0.0, 0.0, 0.0, 0.0, 0.0, 0.0)",0,0,0,,0.1838,-0.1002,0.0918,"(0.0, 0.0, 0.0, 0.0, 0.0, 0.0, 0.0, 0.0, 0.0)","$VNYMR,-059.423,+002.420,+003.213,+00.1838,-00.1002,+00.0918,+01.135,-00.383,-09.425,+00.108540,+00.050325,+00.002214"
1712109948.02957,32626,1712109948,28992414,imu1_frame,0,0,0,,0.036223526467591714,0.004304447790239592,-0.4958559453090334,0.8676382940840948,"(0.0, 0.0, 0.0, 0.0, 0.0, 0.0, 0.0, 0.0, 0.0)",0.100909,0.041881,-0.007035,"(0.0, 0.0, 0.0, 0.0, 0.0, 0.0, 0.0, 0.0, 0.0)",0.893,-0.537,-9.733,"(0.0, 0.0, 0.0, 0.0, 0.0, 0.0, 0.0, 0.0, 0.0)",0,0,0,,0.1832,-0.1004,0.0951,"(0.0, 0.0, 0.0, 0.0, 0.0, 0.0, 0.0, 0.0, 0.0)","$VNYMR,-059.423,+002.487,+003.362,+00.1832,-00.1004,+00.0951,+00.893,-00.537,-09.733,+00.100909,+00.041881,-00.007035"
1712109948.054436,32627,1712109948,53971290,imu1_frame,0,0,0,,0.037458622549745565,0.004107759492207336,-0.4959433029582298,0.8675368684727536,"(0.0, 0.0, 0.0, 0.0, 0.0, 0.0, 0.0, 0.0, 0.0)",0.090341,0.029206,-0.009652,"(0.0, 0.0, 0.0, 0.0, 0.0, 0.0, 0.0, 0.0, 0.0)",0.82,-0.795,-9.674,"(0.0, 0.0, 0.0, 0.0, 0.0, 0.0, 0.0, 0.0, 0.0)",0,0,0,,0.1838,-0.1009,0.0918,"(0.0, 0.0, 0.0, 0.0, 0.0, 0.0, 0.0, 0.0, 0.0)","$VNYMR,-059.433,+002.538,+003.496,+00.1838,-00.1009,+00.0918,+00.820,-00.795,-09.674,+00.090341,+00.029206,-00.009652"
1712109948.0804608,32628,1712109948,79941272,imu1_frame,0,0,0,,0.03849166711642521,0.0038539491704256065,-0.49606563201733245,0.8674228653716912,"(0.0, 0.0, 0.0, 0.0, 0.0, 0.0, 0.0, 0.0, 0.0)",0.081214,0.017311,-0.010532,"(0.0, 0.0, 0.0, 0.0, 0.0, 0.0, 0.0, 0.0, 0.0)",0.792,-1.083,-9.826,"(0.0, 0.0, 0.0, 0.0, 0.0, 0.0, 0.0, 0.0, 0.0)",0,0,0,,0.1828,-0.0984,0.0937,"(0.0, 0.0, 0.0, 0.0, 0.0, 0.0, 0.0, 0.0, 0.0)","$VNYMR,-059.448,+002.572,+003.613,+00.1828,-00.0984,+00.0937,+00.792,-01.083,-09.826,+00.081214,+00.017311,-00.010532"
1712109948.1046143,32629,1712109948,103964567,imu1_frame,0,0,0,,0.03931811078457149,0.0035377993337621406,-0.4961695742100309,0.8673276911112914,"(0.0, 0.0, 0.0, 0.0, 0.0, 0.0, 0.0, 0.0, 0.0)",0.064899,0.003118,-0.008221,"(0.0, 0.0, 0.0, 0.0, 0.0, 0.0, 0.0, 0.0, 0.0)",0.735,-1.339,-9.756,"(0.0, 0.0, 0.0, 0.0, 0.0, 0.0, 0.0, 0.0, 0.0)",0,0,0,,0.1823,-0.0989,0.0942,"(0.0, 0.0, 0.0, 0.0, 0.0, 0.0, 0.0, 0.0, 0.0)","$VNYMR,-059.461,+002.588,+003.713,+00.1823,-00.0989,+00.0942,+00.735,-01.339,-09.756,+00.064899,+00.003118,-00.008221"
1712109948.130365,32630,1712109948,129801511,imu1_frame,0,0,0,,0.039987628460316504,0.003142070796743404,-0.49623256616946837,0.8672625653365261,"(0.0, 0.0, 0.0, 0.0, 0.0, 0.0, 0.0, 0.0, 0.0)",0.05816,-0.007183,-0.003189,"(0.0, 0.0, 0.0, 0.0, 0.0, 0.0, 0.0, 0.0, 0.0)",1.039,-1.14,-9.618,"(0.0, 0.0, 0.0, 0.0, 0.0, 0.0, 0.0, 0.0, 0.0)",0,0,0,,0.1823,-0.0991,0.0931,"(0.0, 0.0, 0.0, 0.0, 0.0, 0.0, 0.0, 0.0, 0.0)","$VNYMR,-059.469,+002.587,+003.802,+00.1823,-00.0991,+00.0931,+01.039,-01.140,-09.618,+00.058160,-00.007183,-00.003189"
1712109948.1553597,32631,1712109948,154845952,imu1_frame,0,0,0,,0.04053909264832642,0.002666132564073328,-0.4962245694042295,0.8672431322437721,"(0.0, 0.0, 0.0, 0.0, 0.0, 0.0, 0.0, 0.0, 0.0)",0.054823,-0.016422,0.003761,"(0.0, 0.0, 0.0, 0.0, 0.0, 0.0, 0.0, 0.0, 0.0)",0.9,-1.141,-9.833,"(0.0, 0.0, 0.0, 0.0, 0.0, 0.0, 0.0, 0.0, 0.0)",0,0,0,,0.1818,-0.0999,0.0933,"(0.0, 0.0, 0.0, 0.0, 0.0, 0.0, 0.0, 0.0, 0.0)","$VNYMR,-059.468,+002.571,+003.884,+00.1818,-00.0999,+00.0933,+00.900,-01.141,-09.833,+00.054823,-00.016422,+00.003761"
1712109948.1803548,32632,1712109948,179817676,imu1_frame,0,0,0,,0.04097695817299145,0.0021869625464500456,-0.4961693587517503,0.8672554834243407,"(0.0, 0.0, 0.0, 0.0, 0.0, 0.0, 0.0, 0.0, 0.0)",0.042005,-0.020129,0.006689,"(0.0, 0.0, 0.0, 0.0, 0.0, 0.0, 0.0, 0.0, 0.0)",0.981,-0.906,-9.906,"(0.0, 0.0, 0.0, 0.0, 0.0, 0.0, 0.0, 0.0, 0.0)",0,0,0,,0.1823,-0.0958,0.0894,"(0.0, 0.0, 0.0, 0.0, 0.0, 0.0, 0.0, 0.0, 0.0)","$VNYMR,-059.461,+002.548,+003.955,+00.1823,-00.0958,+00.0894,+00.981,-00.906,-09.906,+00.042005,-00.020129,+00.006689"
1712109948.2044885,32633,1712109948,203827857,imu1_frame,0,0,0,,0.0412342880635872,0.0017623313910722915,-0.49608227905797936,0.8672940678227878,"(0.0, 0.0, 0.0, 0.0, 0.0, 0.0, 0.0, 0.0, 0.0)",0.026399,-0.020729,0.010111,"(0.0, 0.0, 0.0, 0.0, 0.0, 0.0, 0.0, 0.0, 0.0)",0.912,-0.899,-10.016,"(0.0, 0.0, 0.0, 0.0, 0.0, 0.0, 0.0, 0.0, 0.0)",0,0,0,,0.1818,-0.0999,0.0908,"(0.0, 0.0, 0.0, 0.0, 0.0, 0.0, 0.0, 0.0, 0.0)","$VNYMR,-059.450,+002.520,+004.005,+00.1818,-00.0999,+00.0908,+00.912,-00.899,-10.016,+00.026399,-00.020729,+00.010111"
1712109948.2304661,32634,1712109948,229856967,imu1_frame,0,0,0,,0.04132079231373997,0.0014961051934153854,-0.49598803540602676,0.867344350604698,"(0.0, 0.0, 0.0, 0.0, 0.0, 0.0, 0.0, 0.0, 0.0)",0.015066,-0.015273,0.010933,"(0.0, 0.0, 0.0, 0.0, 0.0, 0.0, 0.0, 0.0, 0.0)",0.97,-0.84,-9.968,"(0.0, 0.0, 0.0, 0.0, 0.0, 0.0, 0.0, 0.0, 0.0)",0,0,0,,0.1826,-0.0981,0.09,"(0.0, 0.0, 0.0, 0.0, 0.0, 0.0, 0.0, 0.0, 0.0)","$VNYMR,-059.438,+002.498,+004.029,+00.1826,-00.0981,+00.0900,+00.970,-00.840,-09.968,+00.015066,-00.015273,+00.010933"
1712109948.2553887,32635,1712109948,254794597,imu1_frame,0,0,0,,0.04125265514718502,0.0013983345312927678,-0.4959023482157772,0.8673967512839349,"(0.0, 0.0, 0.0, 0.0, 0.0, 0.0, 0.0, 0.0, 0.0)",-0.002115,-0.007302,0.009206,"(0.0, 0.0, 0.0, 0.0, 0.0, 0.0, 0.0, 0.0, 0.0)",0.935,-0.94,-10.088,"(0.0, 0.0, 0.0, 0.0, 0.0, 0.0, 0.0, 0.0, 0.0)",0,0,0,,0.1815,-0.0978,0.0913,"(0.0, 0.0, 0.0, 0.0, 0.0, 0.0, 0.0, 0.0, 0.0)","$VNYMR,-059.427,+002.484,+004.028,+00.1815,-00.0978,+00.0913,+00.935,-00.940,-10.088,-00.002115,-00.007302,+00.009206"
1712109948.2802527,32636,1712109948,279666185,imu1_frame,0,0,0,,0.041095784653747316,0.001460699015842646,-0.49584103787353967,0.8674391436882299,"(0.0, 0.0, 0.0, 0.0, 0.0, 0.0, 0.0, 0.0, 0.0)",-0.010501,-0.000116,0.005929,"(0.0, 0.0, 0.0, 0.0, 0.0, 0.0, 0.0, 0.0, 0.0)",1.013,-0.86,-9.987,"(0.0, 0.0, 0.0, 0.0, 0.0, 0.0, 0.0, 0.0, 0.0)",0,0,0,,0.1808,-0.1004,0.0913,"(0.0, 0.0, 0.0, 0.0, 0.0, 0.0, 0.0, 0.0, 0.0)","$VNYMR,-059.419,+002.481,+004.009,+00.1808,-00.1004,+00.0913,+01.013,-00.860,-09.987,-00.010501,-00.000116,+00.005929"
1712109948.3055105,32637,1712109948,304773807,imu1_frame,0,0,0,,0.0409691061492111,0.0016446338303407193,-0.49581989217754346,0.8674568934776807,"(0.0, 0.0, 0.0, 0.0, 0.0, 0.0, 0.0, 0.0, 0.0)",-0.014124,0.009574,0.001031,"(0.0, 0.0, 0.0, 0.0, 0.0, 0.0, 0.0, 0.0, 0.0)",1.152,-0.722,-9.946,"(0.0, 0.0, 0.0, 0.0, 0.0, 0.0, 0.0, 0.0, 0.0)",0,0,0,,0.1808,-0.1012,0.0916,"(0.0, 0.0, 0.0, 0.0, 0.0, 0.0, 0.0, 0.0, 0.0)","$VNYMR,-059.416,+002.492,+003.986,+00.1808,-00.1012,+00.0916,+01.152,-00.722,-09.946,-00.014124,+00.009574,+00.001031"
1712109948.3302386,32638,1712109948,329692840,imu1_frame,0,0,0,,0.04096879978216965,0.0019263643137732052,-0.49581679077656177,0.8674581007454888,"(0.0, 0.0, 0.0, 0.0, 0.0, 0.0, 0.0, 0.0, 0.0)",-0.007132,0.021429,-0.002532,"(0.0, 0.0, 0.0, 0.0, 0.0, 0.0, 0.0, 0.0, 0.0)",1.157,-0.751,-10.029,"(0.0, 0.0, 0.0, 0.0, 0.0, 0.0, 0.0, 0.0, 0.0)",0,0,0,,0.1816,-0.0979,0.0877,"(0.0, 0.0, 0.0, 0.0, 0.0, 0.0, 0.0, 0.0, 0.0)","$VNYMR,-059.415,+002.520,+003.970,+00.1816,-00.0979,+00.0877,+01.157,-00.751,-10.029,-00.007132,+00.021429,-00.002532"
1712109948.3551617,32639,1712109948,354649305,imu1_frame,0,0,0,,0.04111985752027654,0.0022600941933417357,-0.4958615603137432,0.8674245571200816,"(0.0, 0.0, 0.0, 0.0, 0.0, 0.0, 0.0, 0.0, 0.0)",0.004782,0.030109,-0.007456,"(0.0, 0.0, 0.0, 0.0, 0.0, 0.0, 0.0, 0.0, 0.0)",1.094,-0.762,-9.9,"(0.0, 0.0, 0.0, 0.0, 0.0, 0.0, 0.0, 0.0, 0.0)",0,0,0,,0.1815,-0.0986,0.0916,"(0.0, 0.0, 0.0, 0.0, 0.0, 0.0, 0.0, 0.0, 0.0)","$VNYMR,-059.420,+002.562,+003.966,+00.1815,-00.0986,+00.0916,+01.094,-00.762,-09.900,+00.004782,+00.030109,-00.007456"
1712109948.380287,32640,1712109948,379667282,imu1_frame,0,0,0,,0.04139846763304258,0.002640726855856451,-0.4959235712679286,0.8673747776481472,"(0.0, 0.0, 0.0, 0.0, 0.0, 0.0, 0.0, 0.0, 0.0)",0.003293,0.036862,-0.007607,"(0.0, 0.0, 0.0, 0.0, 0.0, 0.0, 0.0, 0.0, 0.0)",1.112,-0.554,-10.042,"(0.0, 0.0, 0.0, 0.0, 0.0, 0.0, 0.0, 0.0, 0.0)",0,0,0,,0.181,-0.0984,0.0919,"(0.0, 0.0, 0.0, 0.0, 0.0, 0.0, 0.0, 0.0, 0.0)","$VNYMR,-059.427,+002.616,+003.972,+00.1810,-00.0984,+00.0919,+01.112,-00.554,-10.042,+00.003293,+00.036862,-00.007607"
1712109948.4053876,32641,1712109948,404710054,imu1_frame,0,0,0,,0.04172031022581603,0.003027102362856599,-0.4959785330359288,0.8673266669101527,"(0.0, 0.0, 0.0, 0.0, 0.0, 0.0, 0.0, 0.0, 0.0)",0.004129,0.036422,-0.005537,"(0.0, 0.0, 0.0, 0.0, 0.0, 0.0, 0.0, 0.0, 0.0)",0.931,-0.486,-10.192,"(0.0, 0.0, 0.0, 0.0, 0.0, 0.0, 0.0, 0.0, 0.0)",0,0,0,,0.1805,-0.0991,0.0924,"(0.0, 0.0, 0.0, 0.0, 0.0, 0.0, 0.0, 0.0, 0.0)","$VNYMR,-059.433,+002.673,+003.982,+00.1805,-00.0991,+00.0924,+00.931,-00.486,-10.192,+00.004129,+00.036422,-00.005537"
1712109948.4302492,32642,1712109948,429687738,imu1_frame,0,0,0,,0.041999964671070894,0.003358631673365496,-0.4960018482005631,0.8672986159002779,"(0.0, 0.0, 0.0, 0.0, 0.0, 0.0, 0.0, 0.0, 0.0)",-0.000613,0.027318,-0.003255,"(0.0, 0.0, 0.0, 0.0, 0.0, 0.0, 0.0, 0.0, 0.0)",0.978,-0.744,-10.339,"(0.0, 0.0, 0.0, 0.0, 0.0, 0.0, 0.0, 0.0, 0.0)",0,0,0,,0.1813,-0.0989,0.0894,"(0.0, 0.0, 0.0, 0.0, 0.0, 0.0, 0.0, 0.0, 0.0)","$VNYMR,-059.435,+002.722,+003.991,+00.1813,-00.0989,+00.0894,+00.978,-00.744,-10.339,-00.000613,+00.027318,-00.003255"
1712109948.4550228,32643,1712109948,454578399,imu1_frame,0,0,0,,0.04212287166658742,0.003610448123173595,-0.4959917854045578,0.867297398334683,"(0.0, 0.0, 0.0, 0.0, 0.0, 0.0, 0.0, 0.0, 0.0)",-0.003053,0.0153,0.002855,"(0.0, 0.0, 0.0, 0.0, 0.0, 0.0, 0.0, 0.0, 0.0)",0.797,-0.786,-10.483,"(0.0, 0.0, 0.0, 0.0, 0.0, 0.0, 0.0, 0.0, 0.0)",0,0,0,,0.1813,-0.0986,0.0919,"(0.0, 0.0, 0.0, 0.0, 0.0, 0.0, 0.0, 0.0, 0.0)","$VNYMR,-059.433,+002.754,+003.989,+00.1813,-00.0986,+00.0919,+00.797,-00.786,-10.483,-00.003053,+00.015300,+00.002855"
1712109948.4802635,32644,1712109948,479578018,imu1_frame,0,0,0,,0.04206512297495449,0.0037079200578615593,-0.4959015642427117,0.8673513793956741,"(0.0, 0.0, 0.0, 0.0, 0.0, 0.0, 0.0, 0.0, 0.0)",-0.012465,-0.005793,0.011416,"(0.0, 0.0, 0.0, 0.0, 0.0, 0.0, 0.0, 0.0, 0.0)",0.614,-1.045,-10.611,"(0.0, 0.0, 0.0, 0.0, 0.0, 0.0, 0.0, 0.0, 0.0)",0,0,0,,0.1813,-0.0997,0.0891,"(0.0, 0.0, 0.0, 0.0, 0.0, 0.0, 0.0, 0.0, 0.0)","$VNYMR,-059.421,+002.760,+003.978,+00.1813,-00.0997,+00.0891,+00.614,-01.045,-10.611,-00.012465,-00.005793,+00.011416"
1712109948.5052116,32645,1712109948,504604578,imu1_frame,0,0,0,,0.041742404322471276,0.0036098294894737933,-0.4957068936760822,0.8674786547082561,"(0.0, 0.0, 0.0, 0.0, 0.0, 0.0, 0.0, 0.0, 0.0)",-0.026693,-0.029598,0.023065,"(0.0, 0.0, 0.0, 0.0, 0.0, 0.0, 0.0, 0.0, 0.0)",0.665,-1.305,-10.822,"(0.0, 0.0, 0.0, 0.0, 0.0, 0.0, 0.0, 0.0, 0.0)",0,0,0,,0.1811,-0.0963,0.0902,"(0.0, 0.0, 0.0, 0.0, 0.0, 0.0, 0.0, 0.0, 0.0)","$VNYMR,-059.396,+002.731,+003.952,+00.1811,-00.0963,+00.0902,+00.665,-01.305,-10.822,-00.026693,-00.029598,+00.023065"
1712109948.5301714,32646,1712109948,529566526,imu1_frame,0,0,0,,0.04102414798890835,0.003348988208650979,-0.4954370474804918,0.8676681021816903,"(0.0, 0.0, 0.0, 0.0, 0.0, 0.0, 0.0, 0.0, 0.0)",-0.05078,-0.058429,0.027303,"(0.0, 0.0, 0.0, 0.0, 0.0, 0.0, 0.0, 0.0, 0.0)",0.896,-1.22,-10.95,"(0.0, 0.0, 0.0, 0.0, 0.0, 0.0, 0.0, 0.0, 0.0)",0,0,0,,0.1808,-0.0994,0.0902,"(0.0, 0.0, 0.0, 0.0, 0.0, 0.0, 0.0, 0.0, 0.0)","$VNYMR,-059.362,+002.663,+003.896,+00.1808,-00.0994,+00.0902,+00.896,-01.220,-10.950,-00.050780,-00.058429,+00.027303"
1712109948.5550807,32647,1712109948,554533958,imu1_frame,0,0,0,,0.039838166666805466,0.002954072686456845,-0.4951373657260161,0.8678958364879356,"(0.0, 0.0, 0.0, 0.0, 0.0, 0.0, 0.0, 0.0, 0.0)",-0.07396,-0.083264,0.034743,"(0.0, 0.0, 0.0, 0.0, 0.0, 0.0, 0.0, 0.0, 0.0)",0.727,-0.914,-10.524,"(0.0, 0.0, 0.0, 0.0, 0.0, 0.0, 0.0, 0.0, 0.0)",0,0,0,,0.1818,-0.0948,0.0916,"(0.0, 0.0, 0.0, 0.0, 0.0, 0.0, 0.0, 0.0, 0.0)","$VNYMR,-059.325,+002.555,+003.801,+00.1818,-00.0948,+00.0916,+00.727,-00.914,-10.524,-00.073960,-00.083264,+00.034743"
1712109948.5802674,32648,1712109948,579543113,imu1_frame,0,0,0,,0.03834874050624387,0.0024999022311958663,-0.4948492121684271,0.8681286666195897,"(0.0, 0.0, 0.0, 0.0, 0.0, 0.0, 0.0, 0.0, 0.0)",-0.087308,-0.094225,0.029878,"(0.0, 0.0, 0.0, 0.0, 0.0, 0.0, 0.0, 0.0, 0.0)",1.067,-0.99,-10.212,"(0.0, 0.0, 0.0, 0.0, 0.0, 0.0, 0.0, 0.0, 0.0)",0,0,0,,0.182,-0.1002,0.0917,"(0.0, 0.0, 0.0, 0.0, 0.0, 0.0, 0.0, 0.0, 0.0)","$VNYMR,-059.290,+002.424,+003.679,+00.1820,-00.1002,+00.0917,+01.067,-00.990,-10.212,-00.087308,-00.094225,+00.029878"
1712109948.605388,32649,1712109948,604588747,imu1_frame,0,0,0,,0.036686706289846854,0.0020189868909843856,-0.49465073368393336,0.8683148397554216,"(0.0, 0.0, 0.0, 0.0, 0.0, 0.0, 0.0, 0.0, 0.0)",-0.098203,-0.102467,0.016443,"(0.0, 0.0, 0.0, 0.0, 0.0, 0.0, 0.0, 0.0, 0.0)",1.024,-0.913,-9.799,"(0.0, 0.0, 0.0, 0.0, 0.0, 0.0, 0.0, 0.0, 0.0)",0,0,0,,0.1818,-0.0999,0.0874,"(0.0, 0.0, 0.0, 0.0, 0.0, 0.0, 0.0, 0.0, 0.0)","$VNYMR,-059.267,+002.281,+003.541,+00.1818,-00.0999,+00.0874,+01.024,-00.913,-09.799,-00.098203,-00.102467,+00.016443"
1712109948.630077,32650,1712109948,629489898,imu1_frame,0,0,0,,0.03520779180356935,0.001448355773707952,-0.49457517549890423,0.8684202378123728,"(0.0, 0.0, 0.0, 0.0, 0.0, 0.0, 0.0, 0.0, 0.0)",-0.068941,-0.094454,0.007587,"(0.0, 0.0, 0.0, 0.0, 0.0, 0.0, 0.0, 0.0, 0.0)",0.929,-0.36,-9.605,"(0.0, 0.0, 0.0, 0.0, 0.0, 0.0, 0.0, 0.0, 0.0)",0,0,0,,0.1828,-0.0997,0.0895,"(0.0, 0.0, 0.0, 0.0, 0.0, 0.0, 0.0, 0.0, 0.0)","$VNYMR,-059.260,+002.140,+003.426,+00.1828,-00.0997,+00.0895,+00.929,-00.360,-09.605,-00.068941,-00.094454,+00.007587"
1712109948.655084,32651,1712109948,654538393,imu1_frame,0,0,0,,0.034039313024894824,0.0008368075534870602,-0.49461646264740805,0.8684441143793178,"(0.0, 0.0, 0.0, 0.0, 0.0, 0.0, 0.0, 0.0, 0.0)",-0.048197,-0.08396,-0.005002,"(0.0, 0.0, 0.0, 0.0, 0.0, 0.0, 0.0, 0.0, 0.0)",0.767,-0.197,-9.492,"(0.0, 0.0, 0.0, 0.0, 0.0, 0.0, 0.0, 0.0, 0.0)",0,0,0,,0.1828,-0.0992,0.0872,"(0.0, 0.0, 0.0, 0.0, 0.0, 0.0, 0.0, 0.0, 0.0)","$VNYMR,-059.268,+002.013,+003.344,+00.1828,-00.0992,+00.0872,+00.767,-00.197,-09.492,-00.048197,-00.083960,-00.005002"
1712109948.6800992,32652,1712109948,679429531,imu1_frame,0,0,0,,0.033110529386818896,0.0003256361492995543,-0.49476789462413545,0.8683941024984128,"(0.0, 0.0, 0.0, 0.0, 0.0, 0.0, 0.0, 0.0, 0.0)",-0.040519,-0.06647,-0.01343,"(0.0, 0.0, 0.0, 0.0, 0.0, 0.0, 0.0, 0.0, 0.0)",0.583,-0.091,-9.499,"(0.0, 0.0, 0.0, 0.0, 0.0, 0.0, 0.0, 0.0, 0.0)",0,0,0,,0.1831,-0.0971,0.0892,"(0.0, 0.0, 0.0, 0.0, 0.0, 0.0, 0.0, 0.0, 0.0)","$VNYMR,-059.290,+001.910,+003.280,+00.1831,-00.0971,+00.0892,+00.583,-00.091,-09.499,-00.040519,-00.066470,-00.013430"
1712109948.7050812,32653,1712109948,704486131,imu1_frame,0,0,0,,0.03220594060090726,4.9322644688929926e-05,-0.4949914448315711,0.8683007799724942,"(0.0, 0.0, 0.0, 0.0, 0.0, 0.0, 0.0, 0.0, 0.0)",-0.057812,-0.047808,-0.021014,"(0.0, 0.0, 0.0, 0.0, 0.0, 0.0, 0.0, 0.0, 0.0)",0.394,-0.289,-9.617,"(0.0, 0.0, 0.0, 0.0, 0.0, 0.0, 0.0, 0.0, 0.0)",0,0,0,,0.183,-0.0971,0.0906,"(0.0, 0.0, 0.0, 0.0, 0.0, 0.0, 0.0, 0.0, 0.0)","$VNYMR,-059.321,+001.832,+003.205,+00.1830,-00.0971,+00.0906,+00.394,-00.289,-09.617,-00.057812,-00.047808,-00.021014"
1712109948.7299757,32654,1712109948,729500532,imu1_frame,0,0,0,,0.03122172938658068,0.0001091739910043573,-0.4952421018895765,0.8681937872451897,"(0.0, 0.0, 0.0, 0.0, 0.0, 0.0, 0.0, 0.0, 0.0)",-0.083348,-0.025848,-0.022979,"(0.0, 0.0, 0.0, 0.0, 0.0, 0.0, 0.0, 0.0, 0.0)",0.371,-0.384,-9.511,"(0.0, 0.0, 0.0, 0.0, 0.0, 0.0, 0.0, 0.0, 0.0)",0,0,0,,0.1833,-0.0986,0.0898,"(0.0, 0.0, 0.0, 0.0, 0.0, 0.0, 0.0, 0.0, 0.0)","$VNYMR,-059.355,+001.783,+003.103,+00.1833,-00.0986,+00.0898,+00.371,-00.384,-09.511,-00.083348,-00.025848,-00.022979"
1712109948.7549822,32655,1712109948,754463911,imu1_frame,0,0,0,,0.03020900265211758,0.0005083051705831957,-0.49546676616178154,0.8681012852275966,"(0.0, 0.0, 0.0, 0.0, 0.0, 0.0, 0.0, 0.0, 0.0)",-0.091257,-0.004898,-0.019579,"(0.0, 0.0, 0.0, 0.0, 0.0, 0.0, 0.0, 0.0, 0.0)",0.276,-0.546,-9.356,"(0.0, 0.0, 0.0, 0.0, 0.0, 0.0, 0.0, 0.0, 0.0)",0,0,0,,0.1836,-0.0997,0.0864,"(0.0, 0.0, 0.0, 0.0, 0.0, 0.0, 0.0, 0.0, 0.0)","$VNYMR,-059.385,+001.766,+002.979,+00.1836,-00.0997,+00.0864,+00.276,-00.546,-09.356,-00.091257,-00.004898,-00.019579"
1712109948.779985,32656,1712109948,779447555,imu1_frame,0,0,0,,0.029374666884489708,0.00109949605863084,-0.4956341182503133,0.8680338362529869,"(0.0, 0.0, 0.0, 0.0, 0.0, 0.0, 0.0, 0.0, 0.0)",-0.072769,0.013964,-0.011962,"(0.0, 0.0, 0.0, 0.0, 0.0, 0.0, 0.0, 0.0, 0.0)",0.283,-0.61,-9.136,"(0.0, 0.0, 0.0, 0.0, 0.0, 0.0, 0.0, 0.0, 0.0)",0,0,0,,0.1828,-0.0994,0.0881,"(0.0, 0.0, 0.0, 0.0, 0.0, 0.0, 0.0, 0.0, 0.0)","$VNYMR,-059.407,+001.778,+002.862,+00.1828,-00.0994,+00.0881,+00.283,-00.610,-09.136,-00.072769,+00.013964,-00.011962"
1712109948.8049908,32657,1712109948,804385423,imu1_frame,0,0,0,,0.02882802571403619,0.0017406647455945733,-0.49571265208685766,0.8680062681690084,"(0.0, 0.0, 0.0, 0.0, 0.0, 0.0, 0.0, 0.0, 0.0)",-0.049314,0.028091,-0.003879,"(0.0, 0.0, 0.0, 0.0, 0.0, 0.0, 0.0, 0.0, 0.0)",0.32,-0.584,-9.049,"(0.0, 0.0, 0.0, 0.0, 0.0, 0.0, 0.0, 0.0, 0.0)",0,0,0,,0.1838,-0.0989,0.0851,"(0.0, 0.0, 0.0, 0.0, 0.0, 0.0, 0.0, 0.0, 0.0)","$VNYMR,-059.417,+001.811,+002.771,+00.1838,-00.0989,+00.0851,+00.320,-00.584,-09.049,-00.049314,+00.028091,-00.003879"
1712109948.830264,32658,1712109948,829466819,imu1_frame,0,0,0,,0.028638165530687983,0.00234226611132011,-0.49568690844878954,0.8680258395099667,"(0.0, 0.0, 0.0, 0.0, 0.0, 0.0, 0.0, 0.0, 0.0)",-0.027742,0.036581,0.003256,"(0.0, 0.0, 0.0, 0.0, 0.0, 0.0, 0.0, 0.0, 0.0)",0.364,-0.437,-9.118,"(0.0, 0.0, 0.0, 0.0, 0.0, 0.0, 0.0, 0.0, 0.0)",0,0,0,,0.1838,-0.0994,0.0893,"(0.0, 0.0, 0.0, 0.0, 0.0, 0.0, 0.0, 0.0, 0.0)","$VNYMR,-059.413,+001.860,+002.718,+00.1838,-00.0994,+00.0893,+00.364,-00.437,-09.118,-00.027742,+00.036581,+00.003256"
1712109948.8551033,32659,1712109948,854498863,imu1_frame,0,0,0,,0.028761835095477535,0.0028269694080983437,-0.49560161116554513,0.8680690111368005,"(0.0, 0.0, 0.0, 0.0, 0.0, 0.0, 0.0, 0.0, 0.0)",-0.002706,0.037955,0.00882,"(0.0, 0.0, 0.0, 0.0, 0.0, 0.0, 0.0, 0.0, 0.0)",0.34,-0.076,-9.265,"(0.0, 0.0, 0.0, 0.0, 0.0, 0.0, 0.0, 0.0, 0.0)",0,0,0,,0.1841,-0.0987,0.0851,"(0.0, 0.0, 0.0, 0.0, 0.0, 0.0, 0.0, 0.0, 0.0)","$VNYMR,-059.401,+001.915,+002.703,+00.1841,-00.0987,+00.0851,+00.340,-00.076,-09.265,-00.002706,+00.037955,+00.008820"
1712109948.8800578,32660,1712109948,879361629,imu1_frame,0,0,0,,0.02904106204993332,0.0032343153049417817,-0.4954712991042487,0.8681326786174269,"(0.0, 0.0, 0.0, 0.0, 0.0, 0.0, 0.0, 0.0, 0.0)",0.004068,0.037352,0.010289,"(0.0, 0.0, 0.0, 0.0, 0.0, 0.0, 0.0, 0.0, 0.0)",0.418,0.16,-9.269,"(0.0, 0.0, 0.0, 0.0, 0.0, 0.0, 0.0, 0.0, 0.0)",0,0,0,,0.1833,-0.1028,0.0879,"(0.0, 0.0, 0.0, 0.0, 0.0, 0.0, 0.0, 0.0, 0.0)","$VNYMR,-059.383,+001.971,+002.708,+00.1833,-00.1028,+00.0879,+00.418,+00.160,-09.269,+00.004068,+00.037352,+00.010289"
1712109948.9047976,32661,1712109948,904222249,imu1_frame,0,0,0,,0.029332137910631672,0.0035746540308599795,-0.4953404346210378,0.8681962343638638,"(0.0, 0.0, 0.0, 0.0, 0.0, 0.0, 0.0, 0.0, 0.0)",0.010366,0.033934,0.009728,"(0.0, 0.0, 0.0, 0.0, 0.0, 0.0, 0.0, 0.0, 0.0)",0.341,-0.02,-9.314,"(0.0, 0.0, 0.0, 0.0, 0.0, 0.0, 0.0, 0.0, 0.0)",0,0,0,,0.1836,-0.1017,0.0859,"(0.0, 0.0, 0.0, 0.0, 0.0, 0.0, 0.0, 0.0, 0.0)","$VNYMR,-059.365,+002.021,+002.718,+00.1836,-00.1017,+00.0859,+00.341,-00.020,-09.314,+00.010366,+00.033934,+00.009728"
1712109948.9298933,32662,1712109948,929293870,imu1_frame,0,0,0,,0.029598432355774987,0.00388778985617063,-0.49524697120367195,0.8682391694721592,"(0.0, 0.0, 0.0, 0.0, 0.0, 0.0, 0.0, 0.0, 0.0)",0.005782,0.029376,0.005152,"(0.0, 0.0, 0.0, 0.0, 0.0, 0.0, 0.0, 0.0, 0.0)",0.406,-0.204,-9.368,"(0.0, 0.0, 0.0, 0.0, 0.0, 0.0, 0.0, 0.0, 0.0)",0,0,0,,0.1833,-0.0999,0.0878,"(0.0, 0.0, 0.0, 0.0, 0.0, 0.0, 0.0, 0.0, 0.0)","$VNYMR,-059.352,+002.067,+002.727,+00.1833,-00.0999,+00.0878,+00.406,-00.204,-09.368,+00.005782,+00.029376,+00.005152"
1712109948.955031,32663,1712109948,954323530,imu1_frame,0,0,0,,0.02982067393166017,0.004173700763044023,-0.4952210532108718,0.8682450207659805,"(0.0, 0.0, 0.0, 0.0, 0.0, 0.0, 0.0, 0.0, 0.0)",0.006162,0.027288,0.000632,"(0.0, 0.0, 0.0, 0.0, 0.0, 0.0, 0.0, 0.0, 0.0)",0.35,-0.099,-9.477,"(0.0, 0.0, 0.0, 0.0, 0.0, 0.0, 0.0, 0.0, 0.0)",0,0,0,,0.1843,-0.1015,0.0879,"(0.0, 0.0, 0.0, 0.0, 0.0, 0.0, 0.0, 0.0, 0.0)","$VNYMR,-059.348,+002.108,+002.733,+00.1843,-00.1015,+00.0879,+00.350,-00.099,-09.477,+00.006162,+00.027288,+00.000632"
1712109948.9797988,32664,1712109948,979269981,imu1_frame,0,0,0,,0.030044317667310087,0.004406922797044421,-0.49524775485762157,0.8682209277112896,"(0.0, 0.0, 0.0, 0.0, 0.0, 0.0, 0.0, 0.0, 0.0)",0.009057,0.02456,-0.006085,"(0.0, 0.0, 0.0, 0.0, 0.0, 0.0, 0.0, 0.0, 0.0)",0.374,-0.274,-9.549,"(0.0, 0.0, 0.0, 0.0, 0.0, 0.0, 0.0, 0.0, 0.0)",0,0,0,,0.1846,-0.102,0.0846,"(0.0, 0.0, 0.0, 0.0, 0.0, 0.0, 0.0, 0.0, 0.0)","$VNYMR,-059.351,+002.144,+002.742,+00.1846,-00.1020,+00.0846,+00.374,-00.274,-09.549,+00.009057,+00.024560,-00.006085"
1712109949.0049226,32665,1712109949,4287719,imu1_frame,0,0,0,,0.030401522417770416,0.004571318659988962,-0.49535856851176185,0.868144422940313,"(0.0, 0.0, 0.0, 0.0, 0.0, 0.0, 0.0, 0.0, 0.0)",0.027904,0.026774,-0.013461,"(0.0, 0.0, 0.0, 0.0, 0.0, 0.0, 0.0, 0.0, 0.0)",0.386,-0.418,-9.442,"(0.0, 0.0, 0.0, 0.0, 0.0, 0.0, 0.0, 0.0, 0.0)",0,0,0,,0.1841,-0.0981,0.087,"(0.0, 0.0, 0.0, 0.0, 0.0, 0.0, 0.0, 0.0, 0.0)","$VNYMR,-059.365,+002.181,+002.768,+00.1841,-00.0981,+00.0870,+00.386,-00.418,-09.442,+00.027904,+00.026774,-00.013461"
1712109949.0299325,32666,1712109949,29338836,imu1_frame,0,0,0,,0.03087597226405581,0.004656709349520343,-0.49553057618210294,0.8680290533521426,"(0.0, 0.0, 0.0, 0.0, 0.0, 0.0, 0.0, 0.0, 0.0)",0.036846,0.023168,-0.016139,"(0.0, 0.0, 0.0, 0.0, 0.0, 0.0, 0.0, 0.0, 0.0)",0.414,-0.488,-9.834,"(0.0, 0.0, 0.0, 0.0, 0.0, 0.0, 0.0, 0.0, 0.0)",0,0,0,,0.1833,-0.102,0.089,"(0.0, 0.0, 0.0, 0.0, 0.0, 0.0, 0.0, 0.0, 0.0)","$VNYMR,-059.387,+002.217,+002.810,+00.1833,-00.1020,+00.0890,+00.414,-00.488,-09.834,+00.036846,+00.023168,-00.016139"
1712109949.0548427,32667,1712109949,54288864,imu1_frame,0,0,0,,0.03147475893135865,0.00466162104893428,-0.49568051358332554,0.8679219073702313,"(0.0, 0.0, 0.0, 0.0, 0.0, 0.0, 0.0, 0.0, 0.0)",0.045079,0.021529,-0.013776,"(0.0, 0.0, 0.0, 0.0, 0.0, 0.0, 0.0, 0.0, 0.0)",0.526,-0.474,-9.985,"(0.0, 0.0, 0.0, 0.0, 0.0, 0.0, 0.0, 0.0, 0.0)",0,0,0,,0.1838,-0.0979,0.0879,"(0.0, 0.0, 0.0, 0.0, 0.0, 0.0, 0.0, 0.0, 0.0)","$VNYMR,-059.406,+002.252,+002.869,+00.1838,-00.0979,+00.0879,+00.526,-00.474,-09.985,+00.045079,+00.021529,-00.013776"
1712109949.0798576,32668,1712109949,79270362,imu1_frame,0,0,0,,0.03206625317921128,0.0045986264534773075,-0.4958753309963297,0.8677892970940984,"(0.0, 0.0, 0.0, 0.0, 0.0, 0.0, 0.0, 0.0, 0.0)",0.029502,0.015007,-0.01353,"(0.0, 0.0, 0.0, 0.0, 0.0, 0.0, 0.0, 0.0, 0.0)",0.188,-0.638,-10.096,"(0.0, 0.0, 0.0, 0.0, 0.0, 0.0, 0.0, 0.0, 0.0)",0,0,0,,0.1845,-0.1012,0.0888,"(0.0, 0.0, 0.0, 0.0, 0.0, 0.0, 0.0, 0.0, 0.0)","$VNYMR,-059.431,+002.280,+002.931,+00.1845,-00.1012,+00.0888,+00.188,-00.638,-10.096,+00.029502,+00.015007,-00.013530"
1712109949.1049314,32669,1712109949,104256153,imu1_frame,0,0,0,,0.03257284219643958,0.004427070413359567,-0.4959547341544748,0.8677259432957883,"(0.0, 0.0, 0.0, 0.0, 0.0, 0.0, 0.0, 0.0, 0.0)",0.040932,0.00293,-0.004649,"(0.0, 0.0, 0.0, 0.0, 0.0, 0.0, 0.0, 0.0, 0.0)",0.219,-0.729,-10.088,"(0.0, 0.0, 0.0, 0.0, 0.0, 0.0, 0.0, 0.0, 0.0)",0,0,0,,0.1843,-0.0999,0.0868,"(0.0, 0.0, 0.0, 0.0, 0.0, 0.0, 0.0, 0.0, 0.0)","$VNYMR,-059.441,+002.292,+002.991,+00.1843,-00.0999,+00.0868,+00.219,-00.729,-10.088,+00.040932,+00.002930,-00.004649"
1712109949.1297553,32670,1712109949,129230499,imu1_frame,0,0,0,,0.032887774534435435,0.004256050067342811,-0.4959866889565967,0.8676966547716254,"(0.0, 0.0, 0.0, 0.0, 0.0, 0.0, 0.0, 0.0, 0.0)",0.024538,-0.001834,0.001406,"(0.0, 0.0, 0.0, 0.0, 0.0, 0.0, 0.0, 0.0, 0.0)",0.325,-0.721,-10.135,"(0.0, 0.0, 0.0, 0.0, 0.0, 0.0, 0.0, 0.0, 0.0)",0,0,0,,0.185,-0.1002,0.0888,"(0.0, 0.0, 0.0, 0.0, 0.0, 0.0, 0.0, 0.0, 0.0)","$VNYMR,-059.445,+002.293,+003.032,+00.1850,-00.1002,+00.0888,+00.325,-00.721,-10.135,+00.024538,-00.001834,+00.001406"
1712109949.1549706,32671,1712109949,154304504,imu1_frame,0,0,0,,0.03299583458496013,0.004095157273564978,-0.49594840919349137,0.8677152067385892,"(0.0, 0.0, 0.0, 0.0, 0.0, 0.0, 0.0, 0.0, 0.0)",0.005021,-0.009749,0.00409,"(0.0, 0.0, 0.0, 0.0, 0.0, 0.0, 0.0, 0.0, 0.0)",-0.071,-0.901,-10.245,"(0.0, 0.0, 0.0, 0.0, 0.0, 0.0, 0.0, 0.0, 0.0)",0,0,0,,0.1853,-0.1007,0.086,"(0.0, 0.0, 0.0, 0.0, 0.0, 0.0, 0.0, 0.0, 0.0)","$VNYMR,-059.440,+002.283,+003.052,+00.1853,-00.1007,+00.0860,-00.071,-00.901,-10.245,+00.005021,-00.009749,+00.004090"
1712109949.18016,32672,1712109949,179327249,imu1_frame,0,0,0,,0.03294160337589873,0.00389750958348261,-0.4958777922919416,0.8677585351339059,"(0.0, 0.0, 0.0, 0.0, 0.0, 0.0, 0.0, 0.0, 0.0)",-0.003011,-0.016614,0.00515,"(0.0, 0.0, 0.0, 0.0, 0.0, 0.0, 0.0, 0.0, 0.0)",-0.251,-0.895,-10.306,"(0.0, 0.0, 0.0, 0.0, 0.0, 0.0, 0.0, 0.0, 0.0)",0,0,0,,0.1856,-0.0984,0.086,"(0.0, 0.0, 0.0, 0.0, 0.0, 0.0, 0.0, 0.0, 0.0)","$VNYMR,-059.431,+002.260,+003.058,+00.1856,-00.0984,+00.0860,-00.251,-00.895,-10.306,-00.003011,-00.016614,+00.005150"
1712109949.204822,32673,1712109949,204246997,imu1_frame,0,0,0,,0.032727299892970414,0.0037014546282610455,-0.4957904086175084,0.8678174311444975,"(0.0, 0.0, 0.0, 0.0, 0.0, 0.0, 0.0, 0.0, 0.0)",-0.017103,-0.021802,0.007678,"(0.0, 0.0, 0.0, 0.0, 0.0, 0.0, 0.0, 0.0, 0.0)",0.392,-0.943,-10.224,"(0.0, 0.0, 0.0, 0.0, 0.0, 0.0, 0.0, 0.0, 0.0)",0,0,0,,0.1845,-0.0989,0.0896,"(0.0, 0.0, 0.0, 0.0, 0.0, 0.0, 0.0, 0.0, 0.0)","$VNYMR,-059.420,+002.228,+003.048,+00.1845,-00.0989,+00.0896,+00.392,-00.943,-10.224,-00.017103,-00.021802,+00.007678"
1712109949.2296965,32674,1712109949,229176521,imu1_frame,0,0,0,,0.0323636252006095,0.003561617921779307,-0.4956718154831948,0.8678993962304896,"(0.0, 0.0, 0.0, 0.0, 0.0, 0.0, 0.0, 0.0, 0.0)",-0.023559,-0.021358,0.009442,"(0.0, 0.0, 0.0, 0.0, 0.0, 0.0, 0.0, 0.0, 0.0)",0.315,-0.79,-10.101,"(0.0, 0.0, 0.0, 0.0, 0.0, 0.0, 0.0, 0.0, 0.0)",0,0,0,,0.1863,-0.0984,0.0883,"(0.0, 0.0, 0.0, 0.0, 0.0, 0.0, 0.0, 0.0, 0.0)","$VNYMR,-059.405,+002.193,+003.020,+00.1863,-00.0984,+00.0883,+00.315,-00.790,-10.101,-00.023559,-00.021358,+00.009442"
1712109949.2548726,32675,1712109949,254270792,imu1_frame,0,0,0,,0.0319633462926186,0.003461114677112631,-0.495598762245989,0.8679563537639519,"(0.0, 0.0, 0.0, 0.0, 0.0, 0.0, 0.0, 0.0, 0.0)",-0.01349,-0.021102,0.006995,"(0.0, 0.0, 0.0, 0.0, 0.0, 0.0, 0.0, 0.0, 0.0)",0.177,-0.825,-10.035,"(0.0, 0.0, 0.0, 0.0, 0.0, 0.0, 0.0, 0.0, 0.0)",0,0,0,,0.1863,-0.1007,0.0895,"(0.0, 0.0, 0.0, 0.0, 0.0, 0.0, 0.0, 0.0, 0.0)","$VNYMR,-059.396,+002.160,+002.986,+00.1863,-00.1007,+00.0895,+00.177,-00.825,-10.035,-00.013490,-00.021102,+00.006995"
1712109949.2797549,32676,1712109949,279167175,imu1_frame,0,0,0,,0.03157191311230938,0.0033737750552423652,-0.49557901973601154,0.8679822965601313,"(0.0, 0.0, 0.0, 0.0, 0.0, 0.0, 0.0, 0.0, 0.0)",-0.027377,-0.021913,-0.000742,"(0.0, 0.0, 0.0, 0.0, 0.0, 0.0, 0.0, 0.0, 0.0)",0.086,-0.9,-9.918,"(0.0, 0.0, 0.0, 0.0, 0.0, 0.0, 0.0, 0.0, 0.0)",0,0,0,,0.1863,-0.1007,0.0855,"(0.0, 0.0, 0.0, 0.0, 0.0, 0.0, 0.0, 0.0, 0.0)","$VNYMR,-059.394,+002.129,+002.952,+00.1863,-00.1007,+00.0855,+00.086,-00.900,-09.918,-00.027377,-00.021913,-00.000742"
1712109949.3050368,32677,1712109949,304275751,imu1_frame,0,0,0,,0.03121844509913671,0.0033335117440322307,-0.49560560922126046,0.8679800553546542,"(0.0, 0.0, 0.0, 0.0, 0.0, 0.0, 0.0, 0.0, 0.0)",-0.021161,-0.014649,-0.006281,"(0.0, 0.0, 0.0, 0.0, 0.0, 0.0, 0.0, 0.0, 0.0)",0.191,-0.822,-9.884,"(0.0, 0.0, 0.0, 0.0, 0.0, 0.0, 0.0, 0.0, 0.0)",0,0,0,,0.187,-0.1002,0.0867,"(0.0, 0.0, 0.0, 0.0, 0.0, 0.0, 0.0, 0.0, 0.0)","$VNYMR,-059.398,+002.105,+002.919,+00.1870,-00.1002,+00.0867,+00.191,-00.822,-09.884,-00.021161,-00.014649,-00.006281"
1712109949.3296769,32678,1712109949,329125881,imu1_frame,0,0,0,,0.030928922731085415,0.003315496547082816,-0.4956785061509625,0.8679488624114278,"(0.0, 0.0, 0.0, 0.0, 0.0, 0.0, 0.0, 0.0, 0.0)",-0.021874,-0.010253,-0.009432,"(0.0, 0.0, 0.0, 0.0, 0.0, 0.0, 0.0, 0.0, 0.0)",0.167,-0.624,-9.888,"(0.0, 0.0, 0.0, 0.0, 0.0, 0.0, 0.0, 0.0, 0.0)",0,0,0,,0.1873,-0.1,0.0864,"(0.0, 0.0, 0.0, 0.0, 0.0, 0.0, 0.0, 0.0, 0.0)","$VNYMR,-059.408,+002.087,+002.891,+00.1873,-00.1000,+00.0864,+00.167,-00.624,-09.888,-00.021874,-00.010253,-00.009432"
1712109949.3546312,32679,1712109949,354111909,imu1_frame,0,0,0,,0.030730422873557876,0.003314088757985145,-0.4958054537524801,0.8678834080422408,"(0.0, 0.0, 0.0, 0.0, 0.0, 0.0, 0.0, 0.0, 0.0)",-0.015334,-0.005913,-0.013281,"(0.0, 0.0, 0.0, 0.0, 0.0, 0.0, 0.0, 0.0, 0.0)",0.259,-0.298,-9.737,"(0.0, 0.0, 0.0, 0.0, 0.0, 0.0, 0.0, 0.0, 0.0)",0,0,0,,0.1863,-0.0999,0.0903,"(0.0, 0.0, 0.0, 0.0, 0.0, 0.0, 0.0, 0.0, 0.0)","$VNYMR,-059.425,+002.076,+002.871,+00.1863,-00.0999,+00.0903,+00.259,-00.298,-09.737,-00.015334,-00.005913,-00.013281"
1712109949.3797255,32680,1712109949,379114389,imu1_frame,0,0,0,,0.03063035534757145,0.003326560691406249,-0.4959410112088931,0.8678094426349305,"(0.0, 0.0, 0.0, 0.0, 0.0, 0.0, 0.0, 0.0, 0.0)",-0.011201,-0.00136,-0.014328,"(0.0, 0.0, 0.0, 0.0, 0.0, 0.0, 0.0, 0.0, 0.0)",0.225,-0.508,-9.7,"(0.0, 0.0, 0.0, 0.0, 0.0, 0.0, 0.0, 0.0, 0.0)",0,0,0,,0.1867,-0.1023,0.0898,"(0.0, 0.0, 0.0, 0.0, 0.0, 0.0, 0.0, 0.0, 0.0)","$VNYMR,-059.443,+002.072,+002.860,+00.1867,-00.1023,+00.0898,+00.225,-00.508,-09.700,-00.011201,-00.001360,-00.014328"
1712109949.4048557,32681,1712109949,404166221,imu1_frame,0,0,0,,0.030571429389833704,0.0033753300851540394,-0.4960924230382968,0.8677247850879162,"(0.0, 0.0, 0.0, 0.0, 0.0, 0.0, 0.0, 0.0, 0.0)",-0.006469,0.002423,-0.013923,"(0.0, 0.0, 0.0, 0.0, 0.0, 0.0, 0.0, 0.0, 0.0)",0.423,-0.545,-9.787,"(0.0, 0.0, 0.0, 0.0, 0.0, 0.0, 0.0, 0.0, 0.0)",0,0,0,,0.1865,-0.1015,0.087,"(0.0, 0.0, 0.0, 0.0, 0.0, 0.0, 0.0, 0.0, 0.0)","$VNYMR,-059.463,+002.074,+002.851,+00.1865,-00.1015,+00.0870,+00.423,-00.545,-09.787,-00.006469,+00.002423,-00.013923"
1712109949.4298687,32682,1712109949,429144144,imu1_frame,0,0,0,,0.030559892479093954,0.0034389666795767975,-0.496191370768357,0.8676683640970565,"(0.0, 0.0, 0.0, 0.0, 0.0, 0.0, 0.0, 0.0, 0.0)",-0.003982,0.005708,-0.007467,"(0.0, 0.0, 0.0, 0.0, 0.0, 0.0, 0.0, 0.0, 0.0)",0.098,-0.488,-9.595,"(0.0, 0.0, 0.0, 0.0, 0.0, 0.0, 0.0, 0.0, 0.0)",0,0,0,,0.1858,-0.0999,0.0891,"(0.0, 0.0, 0.0, 0.0, 0.0, 0.0, 0.0, 0.0, 0.0)","$VNYMR,-059.476,+002.080,+002.846,+00.1858,-00.0999,+00.0891,+00.098,-00.488,-09.595,-00.003982,+00.005708,-00.007467"
1712109949.4547327,32683,1712109949,454169511,imu1_frame,0,0,0,,0.030627180473097787,0.0034487266369134083,-0.49625267292360103,0.8676308931320011,"(0.0, 0.0, 0.0, 0.0, 0.0, 0.0, 0.0, 0.0, 0.0)",0.006714,0.002847,-0.004845,"(0.0, 0.0, 0.0, 0.0, 0.0, 0.0, 0.0, 0.0, 0.0)",0.513,-0.377,-9.546,"(0.0, 0.0, 0.0, 0.0, 0.0, 0.0, 0.0, 0.0, 0.0)",0,0,0,,0.1868,-0.1002,0.0898,"(0.0, 0.0, 0.0, 0.0, 0.0, 0.0, 0.0, 0.0, 0.0)","$VNYMR,-059.484,+002.085,+002.852,+00.1868,-00.1002,+00.0898,+00.513,-00.377,-09.546,+00.006714,+00.002847,-00.004845"
1712109949.4795554,32684,1712109949,478996038,imu1_frame,0,0,0,,0.03084243918295099,0.003385644286457856,-0.4962616528919357,0.8676183799499503,"(0.0, 0.0, 0.0, 0.0, 0.0, 0.0, 0.0, 0.0, 0.0)",0.030162,0.004775,0.001482,"(0.0, 0.0, 0.0, 0.0, 0.0, 0.0, 0.0, 0.0, 0.0)",0.273,-0.221,-9.427,"(0.0, 0.0, 0.0, 0.0, 0.0, 0.0, 0.0, 0.0, 0.0)",0,0,0,,0.1865,-0.1015,0.0889,"(0.0, 0.0, 0.0, 0.0, 0.0, 0.0, 0.0, 0.0, 0.0)","$VNYMR,-059.485,+002.091,+002.877,+00.1865,-00.1015,+00.0889,+00.273,-00.221,-09.427,+00.030162,+00.004775,+00.001482"
1712109949.5048416,32685,1712109949,504152536,imu1_frame,0,0,0,,0.031214399435310704,0.003194010625161921,-0.4962329707989501,0.8676222094068755,"(0.0, 0.0, 0.0, 0.0, 0.0, 0.0, 0.0, 0.0, 0.0)",0.041371,0.000392,0.006422,"(0.0, 0.0, 0.0, 0.0, 0.0, 0.0, 0.0, 0.0, 0.0)",-0.11,-0.142,-10.025,"(0.0, 0.0, 0.0, 0.0, 0.0, 0.0, 0.0, 0.0, 0.0)",0,0,0,,0.187,-0.1007,0.0867,"(0.0, 0.0, 0.0, 0.0, 0.0, 0.0, 0.0, 0.0, 0.0)","$VNYMR,-059.481,+002.093,+002.925,+00.1870,-00.1007,+00.0867,-00.110,-00.142,-10.025,+00.041371,+00.000392,+00.006422"
1712109949.5297914,32686,1712109949,529117107,imu1_frame,0,0,0,,0.031577567671456974,0.0029188302542136196,-0.49615025704590304,0.8676573402462441,"(0.0, 0.0, 0.0, 0.0, 0.0, 0.0, 0.0, 0.0, 0.0)",0.028564,-0.005566,0.009216,"(0.0, 0.0, 0.0, 0.0, 0.0, 0.0, 0.0, 0.0, 0.0)",-0.162,-0.63,-10.29,"(0.0, 0.0, 0.0, 0.0, 0.0, 0.0, 0.0, 0.0, 0.0)",0,0,0,,0.1863,-0.1005,0.0878,"(0.0, 0.0, 0.0, 0.0, 0.0, 0.0, 0.0, 0.0, 0.0)","$VNYMR,-059.470,+002.086,+002.977,+00.1863,-00.1005,+00.0878,-00.162,-00.630,-10.290,+00.028564,-00.005566,+00.009216"
1712109949.554578,32687,1712109949,554074287,imu1_frame,0,0,0,,0.03164868703621871,0.002731124532356726,-0.49604290875024426,0.8677167361796531,"(0.0, 0.0, 0.0, 0.0, 0.0, 0.0, 0.0, 0.0, 0.0)",-0.003391,-0.008553,0.010187,"(0.0, 0.0, 0.0, 0.0, 0.0, 0.0, 0.0, 0.0, 0.0)",0.049,-0.766,-10.472,"(0.0, 0.0, 0.0, 0.0, 0.0, 0.0, 0.0, 0.0, 0.0)",0,0,0,,0.1865,-0.1,0.0861,"(0.0, 0.0, 0.0, 0.0, 0.0, 0.0, 0.0, 0.0, 0.0)","$VNYMR,-059.456,+002.071,+002.995,+00.1865,-00.1000,+00.0861,+00.049,-00.766,-10.472,-00.003391,-00.008553,+00.010187"
1712109949.5797305,32688,1712109949,579037904,imu1_frame,0,0,0,,0.031367157703951536,0.0026654123438434197,-0.49591086058434514,0.8678026361731724,"(0.0, 0.0, 0.0, 0.0, 0.0, 0.0, 0.0, 0.0, 0.0)",-0.025328,-0.01767,0.015172,"(0.0, 0.0, 0.0, 0.0, 0.0, 0.0, 0.0, 0.0, 0.0)",-0.28,-0.766,-10.394,"(0.0, 0.0, 0.0, 0.0, 0.0, 0.0, 0.0, 0.0, 0.0)",0,0,0,,0.186,-0.1025,0.0895,"(0.0, 0.0, 0.0, 0.0, 0.0, 0.0, 0.0, 0.0, 0.0)","$VNYMR,-059.439,+002.048,+002.971,+00.1860,-00.1025,+00.0895,-00.280,-00.766,-10.394,-00.025328,-00.017670,+00.015172"
1712109949.6047254,32689,1712109949,604066610,imu1_frame,0,0,0,,0.030861672329714714,0.0026479636717278068,-0.49575459279198175,0.8679100928063134,"(0.0, 0.0, 0.0, 0.0, 0.0, 0.0, 0.0, 0.0, 0.0)",-0.039086,-0.019469,0.014611,"(0.0, 0.0, 0.0, 0.0, 0.0, 0.0, 0.0, 0.0, 0.0)",0.12,-1.097,-10.394,"(0.0, 0.0, 0.0, 0.0, 0.0, 0.0, 0.0, 0.0, 0.0)",0,0,0,,0.1863,-0.1005,0.0861,"(0.0, 0.0, 0.0, 0.0, 0.0, 0.0, 0.0, 0.0, 0.0)","$VNYMR,-059.419,+002.017,+002.922,+00.1863,-00.1005,+00.0861,+00.120,-01.097,-10.394,-00.039086,-00.019469,+00.014611"
1712109949.630592,32690,1712109949,629990577,imu1_frame,0,0,0,,0.0301247339353694,0.0027511890056144545,-0.4956354321710946,0.8680037152806153,"(0.0, 0.0, 0.0, 0.0, 0.0, 0.0, 0.0, 0.0, 0.0)",-0.0929,-0.022633,0.001327,"(0.0, 0.0, 0.0, 0.0, 0.0, 0.0, 0.0, 0.0, 0.0)",0.068,-1.059,-9.619,"(0.0, 0.0, 0.0, 0.0, 0.0, 0.0, 0.0, 0.0, 0.0)",0,0,0,,0.186,-0.1033,0.0878,"(0.0, 0.0, 0.0, 0.0, 0.0, 0.0, 0.0, 0.0, 0.0)","$VNYMR,-059.404,+001.985,+002.843,+00.1860,-00.1033,+00.0878,+00.068,-01.059,-09.619,-00.092900,-00.022633,+00.001327"
1712109949.6545477,32691,1712109949,654032945,imu1_frame,0,0,0,,0.029324079564126623,0.002829081620073259,-0.4955534146694919,0.868077708424949,"(0.0, 0.0, 0.0, 0.0, 0.0, 0.0, 0.0, 0.0, 0.0)",-0.082919,-0.024698,-0.00206,"(0.0, 0.0, 0.0, 0.0, 0.0, 0.0, 0.0, 0.0, 0.0)",0.156,-0.816,-10.076,"(0.0, 0.0, 0.0, 0.0, 0.0, 0.0, 0.0, 0.0, 0.0)",0,0,0,,0.1865,-0.1015,0.0892,"(0.0, 0.0, 0.0, 0.0, 0.0, 0.0, 0.0, 0.0, 0.0)","$VNYMR,-059.394,+001.947,+002.759,+00.1865,-00.1015,+00.0892,+00.156,-00.816,-10.076,-00.082919,-00.024698,-00.002060"
1712109949.6805408,32692,1712109949,679916143,imu1_frame,0,0,0,,0.028852472391338785,0.0027778397646517697,-0.49551857385086884,0.8681135648127788,"(0.0, 0.0, 0.0, 0.0, 0.0, 0.0, 0.0, 0.0, 0.0)",-0.035294,-0.02305,-0.003266,"(0.0, 0.0, 0.0, 0.0, 0.0, 0.0, 0.0, 0.0, 0.0)",0.128,-0.666,-9.959,"(0.0, 0.0, 0.0, 0.0, 0.0, 0.0, 0.0, 0.0, 0.0)",0,0,0,,0.1858,-0.0999,0.0872,"(0.0, 0.0, 0.0, 0.0, 0.0, 0.0, 0.0, 0.0, 0.0)","$VNYMR,-059.390,+001.915,+002.715,+00.1858,-00.0999,+00.0872,+00.128,-00.666,-09.959,-00.035294,-00.023050,-00.003266"
1712109949.7047014,32693,1712109949,704020500,imu1_frame,0,0,0,,0.02869157732454465,0.0026176289426442286,-0.4955460222660901,0.8681037272271123,"(0.0, 0.0, 0.0, 0.0, 0.0, 0.0, 0.0, 0.0, 0.0)",-0.007399,-0.016913,-0.006084,"(0.0, 0.0, 0.0, 0.0, 0.0, 0.0, 0.0, 0.0, 0.0)",0.302,-0.14,-9.902,"(0.0, 0.0, 0.0, 0.0, 0.0, 0.0, 0.0, 0.0, 0.0)",0,0,0,,0.1865,-0.102,0.0881,"(0.0, 0.0, 0.0, 0.0, 0.0, 0.0, 0.0, 0.0, 0.0)","$VNYMR,-059.394,+001.890,+002.708,+00.1865,-00.1020,+00.0881,+00.302,-00.140,-09.902,-00.007399,-00.016913,-00.006084"
1712109949.7304547,32694,1712109949,729910612,imu1_frame,0,0,0,,0.028534140794095414,0.002512639096704459,-0.4956725305306424,0.8680369991718453,"(0.0, 0.0, 0.0, 0.0, 0.0, 0.0, 0.0, 0.0, 0.0)",-0.007179,-0.013806,-0.013912,"(0.0, 0.0, 0.0, 0.0, 0.0, 0.0, 0.0, 0.0, 0.0)",0.162,-0.302,-9.489,"(0.0, 0.0, 0.0, 0.0, 0.0, 0.0, 0.0, 0.0, 0.0)",0,0,0,,0.1865,-0.1002,0.0872,"(0.0, 0.0, 0.0, 0.0, 0.0, 0.0, 0.0, 0.0, 0.0)","$VNYMR,-059.411,+001.871,+002.698,+00.1865,-00.1002,+00.0872,+00.162,-00.302,-09.489,-00.007179,-00.013806,-00.013912"
1712109949.7554185,32695,1712109949,754944086,imu1_frame,0,0,0,,0.02834438075820471,0.002454162656885188,-0.49586740185730704,0.8679320785294045,"(0.0, 0.0, 0.0, 0.0, 0.0, 0.0, 0.0, 0.0, 0.0)",-0.007605,-0.009361,-0.017776,"(0.0, 0.0, 0.0, 0.0, 0.0, 0.0, 0.0, 0.0, 0.0)",0.144,-0.278,-9.524,"(0.0, 0.0, 0.0, 0.0, 0.0, 0.0, 0.0, 0.0, 0.0)",0,0,0,,0.1875,-0.1,0.0879,"(0.0, 0.0, 0.0, 0.0, 0.0, 0.0, 0.0, 0.0, 0.0)","$VNYMR,-059.437,+001.855,+002.682,+00.1875,-00.1000,+00.0879,+00.144,-00.278,-09.524,-00.007605,-00.009361,-00.017776"
1712109949.7806149,32696,1712109949,779845714,imu1_frame,0,0,0,,0.02812541650521664,0.0024320787123799613,-0.49607751989150395,0.8678191863503826,"(0.0, 0.0, 0.0, 0.0, 0.0, 0.0, 0.0, 0.0, 0.0)",-0.014629,-0.008895,-0.01883,"(0.0, 0.0, 0.0, 0.0, 0.0, 0.0, 0.0, 0.0, 0.0)",0.098,-0.136,-9.59,"(0.0, 0.0, 0.0, 0.0, 0.0, 0.0, 0.0, 0.0, 0.0)",0,0,0,,0.1865,-0.102,0.0895,"(0.0, 0.0, 0.0, 0.0, 0.0, 0.0, 0.0, 0.0, 0.0)","$VNYMR,-059.465,+001.841,+002.661,+00.1865,-00.1020,+00.0895,+00.098,-00.136,-09.590,-00.014629,-00.008895,-00.018830"
1712109949.8045347,32697,1712109949,803931951,imu1_frame,0,0,0,,0.02792045247885249,0.0024527962173933153,-0.4962729884420948,0.8677139811405857,"(0.0, 0.0, 0.0, 0.0, 0.0, 0.0, 0.0, 0.0, 0.0)",-0.01671,-0.006701,-0.016224,"(0.0, 0.0, 0.0, 0.0, 0.0, 0.0, 0.0, 0.0, 0.0)",0.113,-0.325,-9.431,"(0.0, 0.0, 0.0, 0.0, 0.0, 0.0, 0.0, 0.0, 0.0)",0,0,0,,0.1875,-0.1015,0.0876,"(0.0, 0.0, 0.0, 0.0, 0.0, 0.0, 0.0, 0.0, 0.0)","$VNYMR,-059.491,+001.832,+002.639,+00.1875,-00.1015,+00.0876,+00.113,-00.325,-09.431,-00.016710,-00.006701,-00.016224"
1712109949.8305655,32698,1712109949,829874992,imu1_frame,0,0,0,,0.02777379833592164,0.0024715465857008696,-0.49643102478162454,0.8676282298414092,"(0.0, 0.0, 0.0, 0.0, 0.0, 0.0, 0.0, 0.0, 0.0)",-0.00872,-0.000679,-0.012306,"(0.0, 0.0, 0.0, 0.0, 0.0, 0.0, 0.0, 0.0, 0.0)",0.0,-0.445,-9.661,"(0.0, 0.0, 0.0, 0.0, 0.0, 0.0, 0.0, 0.0, 0.0)",0,0,0,,0.1875,-0.103,0.0915,"(0.0, 0.0, 0.0, 0.0, 0.0, 0.0, 0.0, 0.0, 0.0)","$VNYMR,-059.512,+001.826,+002.623,+00.1875,-00.1030,+00.0915,+00.000,-00.445,-09.661,-00.008720,-00.000679,-00.012306"
1712109949.8542948,32699,1712109949,853809118,imu1_frame,0,0,0,,0.02767563342264014,0.002524966711265411,-0.4965215966219862,0.8675793842327727,"(0.0, 0.0, 0.0, 0.0, 0.0, 0.0, 0.0, 0.0, 0.0)",-0.007976,0.000131,-0.005204,"(0.0, 0.0, 0.0, 0.0, 0.0, 0.0, 0.0, 0.0, 0.0)",0.037,-0.391,-9.521,"(0.0, 0.0, 0.0, 0.0, 0.0, 0.0, 0.0, 0.0, 0.0)",0,0,0,,0.1878,-0.1028,0.0876,"(0.0, 0.0, 0.0, 0.0, 0.0, 0.0, 0.0, 0.0, 0.0)","$VNYMR,-059.524,+001.826,+002.610,+00.1878,-00.1028,+00.0876,+00.037,-00.391,-09.521,-00.007976,+00.000131,-00.005204"
1712109949.8807023,32700,1712109949,879865169,imu1_frame,0,0,0,,0.027636747619501804,0.0025970191456328243,-0.4965370755799294,0.8675715522348025,"(0.0, 0.0, 0.0, 0.0, 0.0, 0.0, 0.0, 0.0, 0.0)",-0.002497,0.006887,0.002964,"(0.0, 0.0, 0.0, 0.0, 0.0, 0.0, 0.0, 0.0, 0.0)",0.194,-0.447,-9.733,"(0.0, 0.0, 0.0, 0.0, 0.0, 0.0, 0.0, 0.0, 0.0)",0,0,0,,0.1872,-0.1038,0.091,"(0.0, 0.0, 0.0, 0.0, 0.0, 0.0, 0.0, 0.0, 0.0)","$VNYMR,-059.526,+001.831,+002.602,+00.1872,-00.1038,+00.0910,+00.194,-00.447,-09.733,-00.002497,+00.006887,+00.002964"
1712109949.905444,32701,1712109949,904753446,imu1_frame,0,0,0,,0.027681975228128635,0.0026435459982397536,-0.49646970000157514,0.8676085274433227,"(0.0, 0.0, 0.0, 0.0, 0.0, 0.0, 0.0, 0.0, 0.0)",0.010611,0.0072,0.007208,"(0.0, 0.0, 0.0, 0.0, 0.0, 0.0, 0.0, 0.0, 0.0)",0.138,-0.587,-9.504,"(0.0, 0.0, 0.0, 0.0, 0.0, 0.0, 0.0, 0.0, 0.0)",0,0,0,,0.1883,-0.1023,0.0877,"(0.0, 0.0, 0.0, 0.0, 0.0, 0.0, 0.0, 0.0, 0.0)","$VNYMR,-059.517,+001.838,+002.604,+00.1883,-00.1023,+00.0877,+00.138,-00.587,-09.504,+00.010611,+00.007200,+00.007208"
1712109949.9306567,32702,1712109949,929859161,imu1_frame,0,0,0,,0.027849238130632316,0.0026421948358235706,-0.49634230240115296,0.8676760671985344,"(0.0, 0.0, 0.0, 0.0, 0.0, 0.0, 0.0, 0.0, 0.0)",0.005637,0.00581,0.007712,"(0.0, 0.0, 0.0, 0.0, 0.0, 0.0, 0.0, 0.0, 0.0)",0.29,-0.417,-9.585,"(0.0, 0.0, 0.0, 0.0, 0.0, 0.0, 0.0, 0.0, 0.0)",0,0,0,,0.1877,-0.1005,0.0907,"(0.0, 0.0, 0.0, 0.0, 0.0, 0.0, 0.0, 0.0, 0.0)","$VNYMR,-059.500,+001.847,+002.621,+00.1877,-00.1005,+00.0907,+00.290,-00.417,-09.585,+00.005637,+00.005810,+00.007712"
1712109949.9554083,32703,1712109949,954773187,imu1_frame,0,0,0,,0.028044749780868208,0.002583384717339994,-0.49625248241369085,0.8677213215263186,"(0.0, 0.0, 0.0, 0.0, 0.0, 0.0, 0.0, 0.0, 0.0)",0.0209,0.005606,0.011543,"(0.0, 0.0, 0.0, 0.0, 0.0, 0.0, 0.0, 0.0, 0.0)",0.147,-0.212,-9.725,"(0.0, 0.0, 0.0, 0.0, 0.0, 0.0, 0.0, 0.0, 0.0)",0,0,0,,0.188,-0.1025,0.0899,"(0.0, 0.0, 0.0, 0.0, 0.0, 0.0, 0.0, 0.0, 0.0)","$VNYMR,-059.488,+001.852,+002.644,+00.1880,-00.1025,+00.0899,+00.147,-00.212,-09.725,+00.020900,+00.005606,+00.011543"
1712109949.9804313,32704,1712109949,979742527,imu1_frame,0,0,0,,0.028228397607736426,0.0025211227961875055,-0.4961700971479878,0.8677626612182058,"(0.0, 0.0, 0.0, 0.0, 0.0, 0.0, 0.0, 0.0, 0.0)",0.00983,0.004058,0.00436,"(0.0, 0.0, 0.0, 0.0, 0.0, 0.0, 0.0, 0.0, 0.0)",0.157,-0.439,-9.74,"(0.0, 0.0, 0.0, 0.0, 0.0, 0.0, 0.0, 0.0, 0.0)",0,0,0,,0.1882,-0.1018,0.0885,"(0.0, 0.0, 0.0, 0.0, 0.0, 0.0, 0.0, 0.0, 0.0)","$VNYMR,-059.477,+001.856,+002.666,+00.1882,-00.1018,+00.0885,+00.157,-00.439,-09.740,+00.009830,+00.004058,+00.004360"
1712109950.0055492,32705,1712109950,4806756,imu1_frame,0,0,0,,0.028364662453064328,0.0024436796059215445,-0.496155341730218,0.8677668760827866,"(0.0, 0.0, 0.0, 0.0, 0.0, 0.0, 0.0, 0.0, 0.0)",0.007721,0.001149,-0.002915,"(0.0, 0.0, 0.0, 0.0, 0.0, 0.0, 0.0, 0.0, 0.0)",0.023,-0.29,-9.959,"(0.0, 0.0, 0.0, 0.0, 0.0, 0.0, 0.0, 0.0, 0.0)",0,0,0,,0.188,-0.0999,0.0896,"(0.0, 0.0, 0.0, 0.0, 0.0, 0.0, 0.0, 0.0, 0.0)","$VNYMR,-059.475,+001.856,+002.684,+00.1880,-00.0999,+00.0896,+00.023,-00.290,-09.959,+00.007721,+00.001149,-00.002915"
1712109950.0304158,32706,1712109950,29776811,imu1_frame,0,0,0,,0.028485949573612383,0.002372911710231417,-0.49620111337528505,0.8677369273299559,"(0.0, 0.0, 0.0, 0.0, 0.0, 0.0, 0.0, 0.0, 0.0)",0.005659,-0.000315,-0.007829,"(0.0, 0.0, 0.0, 0.0, 0.0, 0.0, 0.0, 0.0, 0.0)",0.045,-0.455,-10.034,"(0.0, 0.0, 0.0, 0.0, 0.0, 0.0, 0.0, 0.0, 0.0)",0,0,0,,0.1872,-0.1025,0.0904,"(0.0, 0.0, 0.0, 0.0, 0.0, 0.0, 0.0, 0.0, 0.0)","$VNYMR,-059.481,+001.856,+002.700,+00.1872,-00.1025,+00.0904,+00.045,-00.455,-10.034,+00.005659,-00.000315,-00.007829"
1712109950.0552692,32707,1712109950,54713010,imu1_frame,0,0,0,,0.02854679405449271,0.00233503181573164,-0.49629971603917367,0.8676786386877723,"(0.0, 0.0, 0.0, 0.0, 0.0, 0.0, 0.0, 0.0, 0.0)",0.001417,0.00238,-0.011129,"(0.0, 0.0, 0.0, 0.0, 0.0, 0.0, 0.0, 0.0, 0.0)",0.016,-0.525,-10.185,"(0.0, 0.0, 0.0, 0.0, 0.0, 0.0, 0.0, 0.0, 0.0)",0,0,0,,0.188,-0.0994,0.0904,"(0.0, 0.0, 0.0, 0.0, 0.0, 0.0, 0.0, 0.0, 0.0)","$VNYMR,-059.494,+001.856,+002.708,+00.1880,-00.0994,+00.0904,+00.016,-00.525,-10.185,+00.001417,+00.002380,-00.011129"
1712109950.0803397,32708,1712109950,79632282,imu1_frame,0,0,0,,0.02855583379823419,0.002345447588465768,-0.49644379343856787,0.8675958870280692,"(0.0, 0.0, 0.0, 0.0, 0.0, 0.0, 0.0, 0.0, 0.0)",-0.00104,0.002896,-0.014855,"(0.0, 0.0, 0.0, 0.0, 0.0, 0.0, 0.0, 0.0, 0.0)",0.143,-0.691,-10.006,"(0.0, 0.0, 0.0, 0.0, 0.0, 0.0, 0.0, 0.0, 0.0)",0,0,0,,0.1872,-0.103,0.0907,"(0.0, 0.0, 0.0, 0.0, 0.0, 0.0, 0.0, 0.0, 0.0)","$VNYMR,-059.513,+001.858,+002.708,+00.1872,-00.1030,+00.0907,+00.143,-00.691,-10.006,-00.001040,+00.002896,-00.014855"
1712109950.1055136,32709,1712109950,104727506,imu1_frame,0,0,0,,0.028534637249969103,0.0023726965883799408,-0.49660291525360273,0.8675054405302227,"(0.0, 0.0, 0.0, 0.0, 0.0, 0.0, 0.0, 0.0, 0.0)",-0.005583,0.00449,-0.014507,"(0.0, 0.0, 0.0, 0.0, 0.0, 0.0, 0.0, 0.0, 0.0)",0.082,-0.718,-10.004,"(0.0, 0.0, 0.0, 0.0, 0.0, 0.0, 0.0, 0.0, 0.0)",0,0,0,,0.188,-0.1033,0.0877,"(0.0, 0.0, 0.0, 0.0, 0.0, 0.0, 0.0, 0.0, 0.0)","$VNYMR,-059.534,+001.860,+002.704,+00.1880,-00.1033,+00.0877,+00.082,-00.718,-10.004,-00.005583,+00.004490,-00.014507"
1712109950.1303627,32710,1712109950,129717588,imu1_frame,0,0,0,,0.028517696847093855,0.0024085218448961065,-0.49673184799648734,0.8674320787099444,"(0.0, 0.0, 0.0, 0.0, 0.0, 0.0, 0.0, 0.0, 0.0)",-0.002893,0.002329,-0.010898,"(0.0, 0.0, 0.0, 0.0, 0.0, 0.0, 0.0, 0.0, 0.0)",0.134,-0.863,-10.042,"(0.0, 0.0, 0.0, 0.0, 0.0, 0.0, 0.0, 0.0, 0.0)",0,0,0,,0.1875,-0.1038,0.0904,"(0.0, 0.0, 0.0, 0.0, 0.0, 0.0, 0.0, 0.0, 0.0)","$VNYMR,-059.551,+001.863,+002.700,+00.1875,-00.1038,+00.0904,+00.134,-00.863,-10.042,-00.002893,+00.002329,-00.010898"
1712109950.1552663,32711,1712109950,154678583,imu1_frame,0,0,0,,0.028537438314496347,0.002404187874705553,-0.496830401837308,0.8673749975098941,"(0.0, 0.0, 0.0, 0.0, 0.0, 0.0, 0.0, 0.0, 0.0)",-0.000998,0.001368,-0.006888,"(0.0, 0.0, 0.0, 0.0, 0.0, 0.0, 0.0, 0.0, 0.0)",0.098,-0.686,-9.903,"(0.0, 0.0, 0.0, 0.0, 0.0, 0.0, 0.0, 0.0, 0.0)",0,0,0,,0.1885,-0.103,0.0894,"(0.0, 0.0, 0.0, 0.0, 0.0, 0.0, 0.0, 0.0, 0.0)","$VNYMR,-059.564,+001.864,+002.702,+00.1885,-00.1030,+00.0894,+00.098,-00.686,-09.903,-00.000998,+00.001368,-00.006888"
1712109950.180238,32712,1712109950,179570198,imu1_frame,0,0,0,,0.028575430147120218,0.00238076398733238,-0.4968834901871679,0.8673434002367016,"(0.0, 0.0, 0.0, 0.0, 0.0, 0.0, 0.0, 0.0, 0.0)",0.003185,0.000328,-0.001641,"(0.0, 0.0, 0.0, 0.0, 0.0, 0.0, 0.0, 0.0, 0.0)",0.141,-0.479,-9.908,"(0.0, 0.0, 0.0, 0.0, 0.0, 0.0, 0.0, 0.0, 0.0)",0,0,0,,0.1875,-0.1017,0.0901,"(0.0, 0.0, 0.0, 0.0, 0.0, 0.0, 0.0, 0.0, 0.0)","$VNYMR,-059.571,+001.864,+002.707,+00.1875,-00.1017,+00.0901,+00.141,-00.479,-09.908,+00.003185,+00.000328,-00.001641"
1712109950.2054906,32713,1712109950,204670667,imu1_frame,0,0,0,,0.02852248917814293,0.002410619057050657,-0.49689848178033275,0.8673364718096693,"(0.0, 0.0, 0.0, 0.0, 0.0, 0.0, 0.0, 0.0, 0.0)",-0.008018,-0.000304,-0.000676,"(0.0, 0.0, 0.0, 0.0, 0.0, 0.0, 0.0, 0.0, 0.0)",0.136,-0.634,-9.761,"(0.0, 0.0, 0.0, 0.0, 0.0, 0.0, 0.0, 0.0, 0.0)",0,0,0,,0.1872,-0.103,0.0898,"(0.0, 0.0, 0.0, 0.0, 0.0, 0.0, 0.0, 0.0, 0.0)","$VNYMR,-059.573,+001.864,+002.700,+00.1872,-00.1030,+00.0898,+00.136,-00.634,-09.761,-00.008018,-00.000304,-00.000676"
1712109950.230498,32714,1712109950,229664087,imu1_frame,0,0,0,,0.02831377454680638,0.0025203727334534107,-0.4968902248294533,0.8673477286308722,"(0.0, 0.0, 0.0, 0.0, 0.0, 0.0, 0.0, 0.0, 0.0)",-0.024074,0.002035,0.000246,"(0.0, 0.0, 0.0, 0.0, 0.0, 0.0, 0.0, 0.0, 0.0)",0.121,-0.673,-9.938,"(0.0, 0.0, 0.0, 0.0, 0.0, 0.0, 0.0, 0.0, 0.0)",0,0,0,,0.1872,-0.1028,0.0907,"(0.0, 0.0, 0.0, 0.0, 0.0, 0.0, 0.0, 0.0, 0.0)","$VNYMR,-059.572,+001.863,+002.673,+00.1872,-00.1028,+00.0907,+00.121,-00.673,-09.938,-00.024074,+00.002035,+00.000246"
1712109950.2553616,32715,1712109950,254588127,imu1_frame,0,0,0,,0.028014287092042844,0.002752262694530024,-0.49688986338933006,0.8673569556011634,"(0.0, 0.0, 0.0, 0.0, 0.0, 0.0, 0.0, 0.0, 0.0)",-0.036149,0.007156,1.9e-05,"(0.0, 0.0, 0.0, 0.0, 0.0, 0.0, 0.0, 0.0, 0.0)",0.878,-0.635,-9.983,"(0.0, 0.0, 0.0, 0.0, 0.0, 0.0, 0.0, 0.0, 0.0)",0,0,0,,0.1875,-0.1033,0.0876,"(0.0, 0.0, 0.0, 0.0, 0.0, 0.0, 0.0, 0.0, 0.0)","$VNYMR,-059.572,+001.869,+002.630,+00.1875,-00.1033,+00.0876,+00.878,-00.635,-09.983,-00.036149,+00.007156,+00.000019"
1712109950.2804196,32716,1712109950,279590606,imu1_frame,0,0,0,,0.02765112285872652,0.0031003783925644575,-0.4969125544364053,0.867354435223549,"(0.0, 0.0, 0.0, 0.0, 0.0, 0.0, 0.0, 0.0, 0.0)",-0.039982,0.011273,-0.004924,"(0.0, 0.0, 0.0, 0.0, 0.0, 0.0, 0.0, 0.0, 0.0)",-0.494,-0.693,-9.855,"(0.0, 0.0, 0.0, 0.0, 0.0, 0.0, 0.0, 0.0, 0.0)",0,0,0,,0.1868,-0.1002,0.0898,"(0.0, 0.0, 0.0, 0.0, 0.0, 0.0, 0.0, 0.0, 0.0)","$VNYMR,-059.575,+001.883,+002.574,+00.1868,-00.1002,+00.0898,-00.494,-00.693,-09.855,-00.039982,+00.011273,-00.004924"
1712109950.305133,32717,1712109950,304550886,imu1_frame,0,0,0,,0.027341105462253316,0.0034169646570847145,-0.49697307052789536,0.8673284011691939,"(0.0, 0.0, 0.0, 0.0, 0.0, 0.0, 0.0, 0.0, 0.0)",-0.03738,0.011682,-0.008193,"(0.0, 0.0, 0.0, 0.0, 0.0, 0.0, 0.0, 0.0, 0.0)",0.74,-0.552,-9.856,"(0.0, 0.0, 0.0, 0.0, 0.0, 0.0, 0.0, 0.0, 0.0)",0,0,0,,0.1865,-0.1015,0.0872,"(0.0, 0.0, 0.0, 0.0, 0.0, 0.0, 0.0, 0.0, 0.0)","$VNYMR,-059.583,+001.897,+002.525,+00.1865,-00.1015,+00.0872,+00.740,-00.552,-09.856,-00.037380,+00.011682,-00.008193"
1712109950.3304825,32718,1712109950,329657554,imu1_frame,0,0,0,,0.027083146600094418,0.0038242194935920477,-0.49704205793746464,0.8672952618092601,"(0.0, 0.0, 0.0, 0.0, 0.0, 0.0, 0.0, 0.0, 0.0)",-0.036835,0.020988,-0.008641,"(0.0, 0.0, 0.0, 0.0, 0.0, 0.0, 0.0, 0.0, 0.0)",0.886,-0.484,-9.675,"(0.0, 0.0, 0.0, 0.0, 0.0, 0.0, 0.0, 0.0, 0.0)",0,0,0,,0.1865,-0.1038,0.0909,"(0.0, 0.0, 0.0, 0.0, 0.0, 0.0, 0.0, 0.0, 0.0)","$VNYMR,-059.592,+001.923,+002.476,+00.1865,-00.1038,+00.0909,+00.886,-00.484,-09.675,-00.036835,+00.020988,-00.008641"
1712109950.355539,32719,1712109950,354562282,imu1_frame,0,0,0,,0.02696395174210449,0.004261332252632498,-0.4971575666370633,0.8672307307109202,"(0.0, 0.0, 0.0, 0.0, 0.0, 0.0, 0.0, 0.0, 0.0)",-0.018773,0.028856,-0.013606,"(0.0, 0.0, 0.0, 0.0, 0.0, 0.0, 0.0, 0.0, 0.0)",0.216,-0.297,-9.312,"(0.0, 0.0, 0.0, 0.0, 0.0, 0.0, 0.0, 0.0, 0.0)",0,0,0,,0.1865,-0.1028,0.0873,"(0.0, 0.0, 0.0, 0.0, 0.0, 0.0, 0.0, 0.0, 0.0)","$VNYMR,-059.607,+001.960,+002.439,+00.1865,-00.1028,+00.0873,+00.216,-00.297,-09.312,-00.018773,+00.028856,-00.013606"
1712109950.3802216,32720,1712109950,379556179,imu1_frame,0,0,0,,0.0270223863218171,0.004656167295783,-0.4973043699654154,0.8671427070309071,"(0.0, 0.0, 0.0, 0.0, 0.0, 0.0, 0.0, 0.0, 0.0)",-0.011609,0.031438,-0.014482,"(0.0, 0.0, 0.0, 0.0, 0.0, 0.0, 0.0, 0.0, 0.0)",0.802,-0.143,-9.606,"(0.0, 0.0, 0.0, 0.0, 0.0, 0.0, 0.0, 0.0, 0.0)",0,0,0,,0.187,-0.1043,0.0896,"(0.0, 0.0, 0.0, 0.0, 0.0, 0.0, 0.0, 0.0, 0.0)","$VNYMR,-059.626,+002.003,+002.422,+00.1870,-00.1043,+00.0896,+00.802,-00.143,-09.606,-00.011609,+00.031438,-00.014482"
1712109950.4049726,32721,1712109950,404345750,imu1_frame,0,0,0,,0.02714363907866585,0.005126278844483063,-0.4974292632397958,0.867064629768445,"(0.0, 0.0, 0.0, 0.0, 0.0, 0.0, 0.0, 0.0, 0.0)",-0.013488,0.036777,-0.012279,"(0.0, 0.0, 0.0, 0.0, 0.0, 0.0, 0.0, 0.0, 0.0)",0.685,-0.311,-9.977,"(0.0, 0.0, 0.0, 0.0, 0.0, 0.0, 0.0, 0.0, 0.0)",0,0,0,,0.186,-0.103,0.0883,"(0.0, 0.0, 0.0, 0.0, 0.0, 0.0, 0.0, 0.0, 0.0)","$VNYMR,-059.642,+002.057,+002.407,+00.1860,-00.1030,+00.0883,+00.685,-00.311,-09.977,-00.013488,+00.036777,-00.012279"
1712109950.4300034,32722,1712109950,429331541,imu1_frame,0,0,0,,0.027168885078167927,0.005620936382700843,-0.49756827850024304,0.8669810061287941,"(0.0, 0.0, 0.0, 0.0, 0.0, 0.0, 0.0, 0.0, 0.0)",-0.016542,0.031111,-0.015302,"(0.0, 0.0, 0.0, 0.0, 0.0, 0.0, 0.0, 0.0, 0.0)",0.627,-0.579,-9.946,"(0.0, 0.0, 0.0, 0.0, 0.0, 0.0, 0.0, 0.0, 0.0)",0,0,0,,0.1857,-0.1022,0.0911,"(0.0, 0.0, 0.0, 0.0, 0.0, 0.0, 0.0, 0.0, 0.0)","$VNYMR,-059.660,+002.108,+002.381,+00.1857,-00.1022,+00.0911,+00.627,-00.579,-09.946,-00.016542,+00.031111,-00.015302"
1712109950.4553576,32723,1712109950,454483032,imu1_frame,0,0,0,,0.02707181926249117,0.006096191602376096,-0.4976754714817226,0.8669193031275818,"(0.0, 0.0, 0.0, 0.0, 0.0, 0.0, 0.0, 0.0, 0.0)",-0.026672,0.026829,-0.009046,"(0.0, 0.0, 0.0, 0.0, 0.0, 0.0, 0.0, 0.0, 0.0)",1.226,-0.439,-9.88,"(0.0, 0.0, 0.0, 0.0, 0.0, 0.0, 0.0, 0.0, 0.0)",0,0,0,,0.1855,-0.1028,0.092,"(0.0, 0.0, 0.0, 0.0, 0.0, 0.0, 0.0, 0.0, 0.0)","$VNYMR,-059.674,+002.150,+002.344,+00.1855,-00.1028,+00.0920,+01.226,-00.439,-09.880,-00.026672,+00.026829,-00.009046"
1712109950.4808624,32724,1712109950,479621171,imu1_frame,0,0,0,,0.026949666803556878,0.006546718610160205,-0.4977441738525029,0.866880380058579,"(0.0, 0.0, 0.0, 0.0, 0.0, 0.0, 0.0, 0.0, 0.0)",-0.019647,0.020887,-0.007684,"(0.0, 0.0, 0.0, 0.0, 0.0, 0.0, 0.0, 0.0, 0.0)",0.698,-0.487,-9.827,"(0.0, 0.0, 0.0, 0.0, 0.0, 0.0, 0.0, 0.0, 0.0)",0,0,0,,0.186,-0.1035,0.0906,"(0.0, 0.0, 0.0, 0.0, 0.0, 0.0, 0.0, 0.0, 0.0)","$VNYMR,-059.683,+002.188,+002.306,+00.1860,-00.1035,+00.0906,+00.698,-00.487,-09.827,-00.019647,+00.020887,-00.007684"
1712109950.5051508,32725,1712109950,504426956,imu1_frame,0,0,0,,0.026881309383718625,0.006846099560484964,-0.4977974958511066,0.866849571293078,"(0.0, 0.0, 0.0, 0.0, 0.0, 0.0, 0.0, 0.0, 0.0)",-0.013714,0.012151,-0.004044,"(0.0, 0.0, 0.0, 0.0, 0.0, 0.0, 0.0, 0.0, 0.0)",1.131,-0.629,-9.959,"(0.0, 0.0, 0.0, 0.0, 0.0, 0.0, 0.0, 0.0, 0.0)",0,0,0,,0.1865,-0.1048,0.089,"(0.0, 0.0, 0.0, 0.0, 0.0, 0.0, 0.0, 0.0, 0.0)","$VNYMR,-059.690,+002.214,+002.282,+00.1865,-00.1048,+00.0890,+01.131,-00.629,-09.959,-00.013714,+00.012151,-00.004044"
1712109950.5302277,32726,1712109950,529385328,imu1_frame,0,0,0,,0.02685038944536583,0.007054585073982798,-0.4978129684898768,0.8668399724397597,"(0.0, 0.0, 0.0, 0.0, 0.0, 0.0, 0.0, 0.0, 0.0)",-0.008548,0.009881,-0.002288,"(0.0, 0.0, 0.0, 0.0, 0.0, 0.0, 0.0, 0.0, 0.0)",0.961,-0.541,-10.029,"(0.0, 0.0, 0.0, 0.0, 0.0, 0.0, 0.0, 0.0, 0.0)",0,0,0,,0.1867,-0.1025,0.0912,"(0.0, 0.0, 0.0, 0.0, 0.0, 0.0, 0.0, 0.0, 0.0)","$VNYMR,-059.692,+002.233,+002.267,+00.1867,-00.1025,+00.0912,+00.961,-00.541,-10.029,-00.008548,+00.009881,-00.002288"
1712109950.554788,32727,1712109950,554212331,imu1_frame,0,0,0,,0.0268236542823346,0.00712970022283861,-0.4978356174015807,0.8668271782726137,"(0.0, 0.0, 0.0, 0.0, 0.0, 0.0, 0.0, 0.0, 0.0)",-0.000967,-0.001274,-0.00223,"(0.0, 0.0, 0.0, 0.0, 0.0, 0.0, 0.0, 0.0, 0.0)",0.54,-0.515,-10.015,"(0.0, 0.0, 0.0, 0.0, 0.0, 0.0, 0.0, 0.0, 0.0)",0,0,0,,0.187,-0.1007,0.0887,"(0.0, 0.0, 0.0, 0.0, 0.0, 0.0, 0.0, 0.0, 0.0)","$VNYMR,-059.695,+002.239,+002.260,+00.1870,-00.1007,+00.0887,+00.540,-00.515,-10.015,-00.000967,-00.001274,-00.002230"
1712109950.5801704,32728,1712109950,579346179,imu1_frame,0,0,0,,0.026804320853829965,0.007059532971496401,-0.4978654820034628,0.8668111981321245,"(0.0, 0.0, 0.0, 0.0, 0.0, 0.0, 0.0, 0.0, 0.0)",0.004407,-0.011359,-0.005052,"(0.0, 0.0, 0.0, 0.0, 0.0, 0.0, 0.0, 0.0, 0.0)",-0.038,-0.559,-10.04,"(0.0, 0.0, 0.0, 0.0, 0.0, 0.0, 0.0, 0.0, 0.0)",0,0,0,,0.187,-0.1015,0.0912,"(0.0, 0.0, 0.0, 0.0, 0.0, 0.0, 0.0, 0.0, 0.0)","$VNYMR,-059.699,+002.231,+002.262,+00.1870,-00.1015,+00.0912,-00.038,-00.559,-10.040,+00.004407,-00.011359,-00.005052"
1712109950.605046,32729,1712109950,604382514,imu1_frame,0,0,0,,0.02670829133934103,0.00687146586562422,-0.497932053274544,0.8667774342081062,"(0.0, 0.0, 0.0, 0.0, 0.0, 0.0, 0.0, 0.0, 0.0)",1.9e-05,-0.020739,-0.006188,"(0.0, 0.0, 0.0, 0.0, 0.0, 0.0, 0.0, 0.0, 0.0)",0.279,-0.342,-10.071,"(0.0, 0.0, 0.0, 0.0, 0.0, 0.0, 0.0, 0.0, 0.0)",0,0,0,,0.1867,-0.1043,0.0918,"(0.0, 0.0, 0.0, 0.0, 0.0, 0.0, 0.0, 0.0, 0.0)","$VNYMR,-059.708,+002.207,+002.263,+00.1867,-00.1043,+00.0918,+00.279,-00.342,-10.071,+00.000019,-00.020739,-00.006188"
1712109950.6300247,32730,1712109950,629293203,imu1_frame,0,0,0,,0.02652039728389154,0.006645036931908229,-0.49802028120976244,0.8667342796473597,"(0.0, 0.0, 0.0, 0.0, 0.0, 0.0, 0.0, 0.0, 0.0)",-0.005623,-0.026156,-0.00649,"(0.0, 0.0, 0.0, 0.0, 0.0, 0.0, 0.0, 0.0, 0.0)",0.063,-0.34,-9.832,"(0.0, 0.0, 0.0, 0.0, 0.0, 0.0, 0.0, 0.0, 0.0)",0,0,0,,0.1877,-0.1038,0.0918,"(0.0, 0.0, 0.0, 0.0, 0.0, 0.0, 0.0, 0.0, 0.0)","$VNYMR,-059.720,+002.174,+002.257,+00.1877,-00.1038,+00.0918,+00.063,-00.340,-09.832,-00.005623,-00.026156,-00.006490"
1712109950.6549308,32731,1712109950,654326200,imu1_frame,0,0,0,,0.026309738492061197,0.006360875145735094,-0.49812319805803207,0.8666836888301861,"(0.0, 0.0, 0.0, 0.0, 0.0, 0.0, 0.0, 0.0, 0.0)",0.001467,-0.029965,-0.009942,"(0.0, 0.0, 0.0, 0.0, 0.0, 0.0, 0.0, 0.0, 0.0)",-0.217,-0.561,-9.813,"(0.0, 0.0, 0.0, 0.0, 0.0, 0.0, 0.0, 0.0, 0.0)",0,0,0,,0.1875,-0.1041,0.0896,"(0.0, 0.0, 0.0, 0.0, 0.0, 0.0, 0.0, 0.0, 0.0)","$VNYMR,-059.734,+002.134,+002.252,+00.1875,-00.1041,+00.0896,-00.217,-00.561,-09.813,+00.001467,-00.029965,-00.009942"
1712109950.6799412,32732,1712109950,679320335,imu1_frame,0,0,0,,0.026099070511047043,0.006005500120810815,-0.49825605212839447,0.8666162235985347,"(0.0, 0.0, 0.0, 0.0, 0.0, 0.0, 0.0, 0.0, 0.0)",-0.000273,-0.034145,-0.012735,"(0.0, 0.0, 0.0, 0.0, 0.0, 0.0, 0.0, 0.0, 0.0)",-0.668,-0.391,-9.665,"(0.0, 0.0, 0.0, 0.0, 0.0, 0.0, 0.0, 0.0, 0.0)",0,0,0,,0.1877,-0.1023,0.0913,"(0.0, 0.0, 0.0, 0.0, 0.0, 0.0, 0.0, 0.0, 0.0)","$VNYMR,-059.752,+002.087,+002.251,+00.1877,-00.1023,+00.0913,-00.668,-00.391,-09.665,-00.000273,-00.034145,-00.012735"
1712109950.704917,32733,1712109950,704247474,imu1_frame,0,0,0,,0.02588700149509248,0.005560358146730851,-0.4983884209010166,0.8665494374140836,"(0.0, 0.0, 0.0, 0.0, 0.0, 0.0, 0.0, 0.0, 0.0)",0.006323,-0.038478,-0.010431,"(0.0, 0.0, 0.0, 0.0, 0.0, 0.0, 0.0, 0.0, 0.0)",-0.619,-0.379,-9.854,"(0.0, 0.0, 0.0, 0.0, 0.0, 0.0, 0.0, 0.0, 0.0)",0,0,0,,0.1872,-0.1023,0.0912,"(0.0, 0.0, 0.0, 0.0, 0.0, 0.0, 0.0, 0.0, 0.0)","$VNYMR,-059.770,+002.031,+002.255,+00.1872,-00.1023,+00.0912,-00.619,-00.379,-09.854,+00.006323,-00.038478,-00.010431"
1712109950.7299104,32734,1712109950,729241371,imu1_frame,0,0,0,,0.025684392237407788,0.005079761480853139,-0.49851298071908007,0.8664867662424344,"(0.0, 0.0, 0.0, 0.0, 0.0, 0.0, 0.0, 0.0, 0.0)",0.005517,-0.039326,-0.00877,"(0.0, 0.0, 0.0, 0.0, 0.0, 0.0, 0.0, 0.0, 0.0)",-0.752,-0.424,-9.888,"(0.0, 0.0, 0.0, 0.0, 0.0, 0.0, 0.0, 0.0, 0.0)",0,0,0,,0.1875,-0.1038,0.0918,"(0.0, 0.0, 0.0, 0.0, 0.0, 0.0, 0.0, 0.0, 0.0)","$VNYMR,-059.787,+001.972,+002.262,+00.1875,-00.1038,+00.0918,-00.752,-00.424,-09.888,+00.005517,-00.039326,-00.008770"
1712109950.7550116,32735,1712109950,754311323,imu1_frame,0,0,0,,0.02549973232893745,0.004579941259156695,-0.4985920207010569,0.8664495280640718,"(0.0, 0.0, 0.0, 0.0, 0.0, 0.0, 0.0, 0.0, 0.0)",0.003295,-0.037964,-0.005329,"(0.0, 0.0, 0.0, 0.0, 0.0, 0.0, 0.0, 0.0, 0.0)",-0.162,-0.629,-9.651,"(0.0, 0.0, 0.0, 0.0, 0.0, 0.0, 0.0, 0.0, 0.0)",0,0,0,,0.1872,-0.1041,0.0915,"(0.0, 0.0, 0.0, 0.0, 0.0, 0.0, 0.0, 0.0, 0.0)","$VNYMR,-059.798,+001.912,+002.272,+00.1872,-00.1041,+00.0915,-00.162,-00.629,-09.651,+00.003295,-00.037964,-00.005329"
1712109950.7798755,32736,1712109950,779246091,imu1_frame,0,0,0,,0.02533228817158423,0.004182310828191128,-0.4986186470340272,0.866441127995483,"(0.0, 0.0, 0.0, 0.0, 0.0, 0.0, 0.0, 0.0, 0.0)",0.000716,-0.030685,-0.001006,"(0.0, 0.0, 0.0, 0.0, 0.0, 0.0, 0.0, 0.0, 0.0)",0.366,-0.544,-9.656,"(0.0, 0.0, 0.0, 0.0, 0.0, 0.0, 0.0, 0.0, 0.0)",0,0,0,,0.1878,-0.1018,0.0871,"(0.0, 0.0, 0.0, 0.0, 0.0, 0.0, 0.0, 0.0, 0.0)","$VNYMR,-059.802,+001.863,+002.278,+00.1878,-00.1018,+00.0871,+00.366,-00.544,-09.656,+00.000716,-00.030685,-00.001006"
1712109950.8049567,32737,1712109950,804292678,imu1_frame,0,0,0,,0.025188856610548593,0.00393270074177203,-0.49861599792991346,0.8664480030422401,"(0.0, 0.0, 0.0, 0.0, 0.0, 0.0, 0.0, 0.0, 0.0)",-0.002484,-0.01698,0.000144,"(0.0, 0.0, 0.0, 0.0, 0.0, 0.0, 0.0, 0.0, 0.0)",0.33,-0.414,-9.463,"(0.0, 0.0, 0.0, 0.0, 0.0, 0.0, 0.0, 0.0, 0.0)",0,0,0,,0.1873,-0.103,0.0884,"(0.0, 0.0, 0.0, 0.0, 0.0, 0.0, 0.0, 0.0, 0.0)","$VNYMR,-059.802,+001.830,+002.278,+00.1873,-00.1030,+00.0884,+00.330,-00.414,-09.463,-00.002484,-00.016980,+00.000144"
1712109950.8301122,32738,1712109950,829319238,imu1_frame,0,0,0,,0.025158184561817332,0.0038098396032001033,-0.49859987237016845,0.8664587227007435,"(0.0, 0.0, 0.0, 0.0, 0.0, 0.0, 0.0, 0.0, 0.0)",0.003752,-0.00485,-0.000446,"(0.0, 0.0, 0.0, 0.0, 0.0, 0.0, 0.0, 0.0, 0.0)",-0.062,-0.431,-9.606,"(0.0, 0.0, 0.0, 0.0, 0.0, 0.0, 0.0, 0.0, 0.0)",0,0,0,,0.1877,-0.102,0.0887,"(0.0, 0.0, 0.0, 0.0, 0.0, 0.0, 0.0, 0.0, 0.0)","$VNYMR,-059.800,+001.816,+002.282,+00.1877,-00.1020,+00.0887,-00.062,-00.431,-09.606,+00.003752,-00.004850,-00.000446"
1712109950.8548534,32739,1712109950,854220867,imu1_frame,0,0,0,,0.02525538224531892,0.0037335756854053655,-0.4986077300177934,0.8664517053170061,"(0.0, 0.0, 0.0, 0.0, 0.0, 0.0, 0.0, 0.0, 0.0)",0.010998,0.004276,-0.000413,"(0.0, 0.0, 0.0, 0.0, 0.0, 0.0, 0.0, 0.0, 0.0)",0.193,-0.234,-9.706,"(0.0, 0.0, 0.0, 0.0, 0.0, 0.0, 0.0, 0.0, 0.0)",0,0,0,,0.187,-0.101,0.0895,"(0.0, 0.0, 0.0, 0.0, 0.0, 0.0, 0.0, 0.0, 0.0)","$VNYMR,-059.801,+001.814,+002.296,+00.1870,-00.1010,+00.0895,+00.193,-00.234,-09.706,+00.010998,+00.004276,-00.000413"
1712109950.8799233,32740,1712109950,879266262,imu1_frame,0,0,0,,0.02545561272607158,0.0037487905536258363,-0.4986245526472129,0.8664360991137735,"(0.0, 0.0, 0.0, 0.0, 0.0, 0.0, 0.0, 0.0, 0.0)",0.009887,0.010641,-0.001544,"(0.0, 0.0, 0.0, 0.0, 0.0, 0.0, 0.0, 0.0, 0.0)",0.966,-0.228,-9.671,"(0.0, 0.0, 0.0, 0.0, 0.0, 0.0, 0.0, 0.0, 0.0)",0,0,0,,0.1877,-0.1048,0.0919,"(0.0, 0.0, 0.0, 0.0, 0.0, 0.0, 0.0, 0.0, 0.0)","$VNYMR,-059.803,+001.827,+002.315,+00.1877,-00.1048,+00.0919,+00.966,-00.228,-09.671,+00.009887,+00.010641,-00.001544"
1712109950.904919,32741,1712109950,904263019,imu1_frame,0,0,0,,0.025725170821258275,0.0038148906186974696,-0.4986347162712428,0.8664219999081754,"(0.0, 0.0, 0.0, 0.0, 0.0, 0.0, 0.0, 0.0, 0.0)",0.019753,0.018268,-0.000443,"(0.0, 0.0, 0.0, 0.0, 0.0, 0.0, 0.0, 0.0, 0.0)",1.067,-0.251,-9.654,"(0.0, 0.0, 0.0, 0.0, 0.0, 0.0, 0.0, 0.0, 0.0)",0,0,0,,0.1872,-0.101,0.0912,"(0.0, 0.0, 0.0, 0.0, 0.0, 0.0, 0.0, 0.0, 0.0)","$VNYMR,-059.804,+001.849,+002.338,+00.1872,-00.1010,+00.0912,+01.067,-00.251,-09.654,+00.019753,+00.018268,-00.000443"
1712109950.9300518,32742,1712109950,929273843,imu1_frame,0,0,0,,0.026056560613582906,0.003935776878809237,-0.498653333855747,0.8664008413799584,"(0.0, 0.0, 0.0, 0.0, 0.0, 0.0, 0.0, 0.0, 0.0)",0.023503,0.021693,-0.003493,"(0.0, 0.0, 0.0, 0.0, 0.0, 0.0, 0.0, 0.0, 0.0)",0.781,-0.292,-9.928,"(0.0, 0.0, 0.0, 0.0, 0.0, 0.0, 0.0, 0.0, 0.0)",0,0,0,,0.1877,-0.1025,0.0921,"(0.0, 0.0, 0.0, 0.0, 0.0, 0.0, 0.0, 0.0, 0.0)","$VNYMR,-059.806,+001.880,+002.364,+00.1877,-00.1025,+00.0921,+00.781,-00.292,-09.928,+00.023503,+00.021693,-00.003493"
1712109950.9547646,32743,1712109950,954231023,imu1_frame,0,0,0,,0.026418331691425163,0.00403832078053918,-0.4987023784018185,0.8663611842022269,"(0.0, 0.0, 0.0, 0.0, 0.0, 0.0, 0.0, 0.0, 0.0)",0.020604,0.016767,-0.006439,"(0.0, 0.0, 0.0, 0.0, 0.0, 0.0, 0.0, 0.0, 0.0)",0.773,-0.366,-9.781,"(0.0, 0.0, 0.0, 0.0, 0.0, 0.0, 0.0, 0.0, 0.0)",0,0,0,,0.188,-0.1023,0.0876,"(0.0, 0.0, 0.0, 0.0, 0.0, 0.0, 0.0, 0.0, 0.0)","$VNYMR,-059.812,+001.911,+002.394,+00.1880,-00.1023,+00.0876,+00.773,-00.366,-09.781,+00.020604,+00.016767,-00.006439"
1712109950.9799218,32744,1712109950,979210138,imu1_frame,0,0,0,,0.026806909360804782,0.004065212612952403,-0.4987436431722211,0.8663253673142867,"(0.0, 0.0, 0.0, 0.0, 0.0, 0.0, 0.0, 0.0, 0.0)",0.031211,0.014999,-0.005806,"(0.0, 0.0, 0.0, 0.0, 0.0, 0.0, 0.0, 0.0, 0.0)",0.897,-0.396,-10.002,"(0.0, 0.0, 0.0, 0.0, 0.0, 0.0, 0.0, 0.0, 0.0)",0,0,0,,0.1872,-0.1041,0.0915,"(0.0, 0.0, 0.0, 0.0, 0.0, 0.0, 0.0, 0.0, 0.0)","$VNYMR,-059.817,+001.936,+002.431,+00.1872,-00.1041,+00.0915,+00.897,-00.396,-10.002,+00.031211,+00.014999,-00.005806"
1712109951.005122,32745,1712109951,4263401,imu1_frame,0,0,0,,0.027200685935664118,0.003977694318240861,-0.4988069003021829,0.8662770785628976,"(0.0, 0.0, 0.0, 0.0, 0.0, 0.0, 0.0, 0.0, 0.0)",0.034565,0.001334,-0.006494,"(0.0, 0.0, 0.0, 0.0, 0.0, 0.0, 0.0, 0.0, 0.0)",0.158,-0.336,-9.683,"(0.0, 0.0, 0.0, 0.0, 0.0, 0.0, 0.0, 0.0, 0.0)",0,0,0,,0.1875,-0.103,0.089,"(0.0, 0.0, 0.0, 0.0, 0.0, 0.0, 0.0, 0.0, 0.0)","$VNYMR,-059.825,+001.950,+002.475,+00.1875,-00.1030,+00.0890,+00.158,-00.336,-09.683,+00.034565,+00.001334,-00.006494"
1712109951.029965,32746,1712109951,29243230,imu1_frame,0,0,0,,0.027669380983358915,0.0036360128805489177,-0.4988538087349023,0.8662367241562854,"(0.0, 0.0, 0.0, 0.0, 0.0, 0.0, 0.0, 0.0, 0.0)",0.054291,-0.007266,-0.004376,"(0.0, 0.0, 0.0, 0.0, 0.0, 0.0, 0.0, 0.0, 0.0)",0.337,-0.368,-9.916,"(0.0, 0.0, 0.0, 0.0, 0.0, 0.0, 0.0, 0.0, 0.0)",0,0,0,,0.1875,-0.1012,0.089,"(0.0, 0.0, 0.0, 0.0, 0.0, 0.0, 0.0, 0.0, 0.0)","$VNYMR,-059.831,+001.943,+002.541,+00.1875,-00.1012,+00.0890,+00.337,-00.368,-09.916,+00.054291,-00.007266,-00.004376"
1712109951.0547967,32747,1712109951,54213285,imu1_frame,0,0,0,,0.028193730737465478,0.0031114334590315266,-0.49889188409697377,0.8661999310269574,"(0.0, 0.0, 0.0, 0.0, 0.0, 0.0, 0.0, 0.0, 0.0)",0.064902,-0.022073,-0.002402,"(0.0, 0.0, 0.0, 0.0, 0.0, 0.0, 0.0, 0.0, 0.0)",0.331,-0.03,-9.563,"(0.0, 0.0, 0.0, 0.0, 0.0, 0.0, 0.0, 0.0, 0.0)",0,0,0,,0.187,-0.1012,0.0915,"(0.0, 0.0, 0.0, 0.0, 0.0, 0.0, 0.0, 0.0, 0.0)","$VNYMR,-059.836,+001.921,+002.623,+00.1870,-00.1012,+00.0915,+00.331,-00.030,-09.563,+00.064902,-00.022073,-00.002402"
1712109951.0797482,32748,1712109951,79119682,imu1_frame,0,0,0,,0.028771469664032392,0.0023647584058042685,-0.49892779457803976,0.8661626095881465,"(0.0, 0.0, 0.0, 0.0, 0.0, 0.0, 0.0, 0.0, 0.0)",0.071075,-0.032475,-0.001003,"(0.0, 0.0, 0.0, 0.0, 0.0, 0.0, 0.0, 0.0, 0.0)",0.424,-0.254,-9.717,"(0.0, 0.0, 0.0, 0.0, 0.0, 0.0, 0.0, 0.0, 0.0)",0,0,0,,0.1872,-0.102,0.0924,"(0.0, 0.0, 0.0, 0.0, 0.0, 0.0, 0.0, 0.0, 0.0)","$VNYMR,-059.841,+001.880,+002.723,+00.1872,-00.1020,+00.0924,+00.424,-00.254,-09.717,+00.071075,-00.032475,-00.001003"
1712109951.1048625,32749,1712109951,104216575,imu1_frame,0,0,0,,0.029336792517820162,0.0014746437070717027,-0.4989459409535932,0.8661351661470846,"(0.0, 0.0, 0.0, 0.0, 0.0, 0.0, 0.0, 0.0, 0.0)",0.076519,-0.042768,-0.000274,"(0.0, 0.0, 0.0, 0.0, 0.0, 0.0, 0.0, 0.0, 0.0)",-0.013,-0.363,-9.965,"(0.0, 0.0, 0.0, 0.0, 0.0, 0.0, 0.0, 0.0, 0.0)",0,0,0,,0.1857,-0.1038,0.0931,"(0.0, 0.0, 0.0, 0.0, 0.0, 0.0, 0.0, 0.0, 0.0)","$VNYMR,-059.844,+001.824,+002.830,+00.1857,-00.1038,+00.0931,-00.013,-00.363,-09.965,+00.076519,-00.042768,-00.000274"
1712109951.1299376,32750,1712109951,129177808,imu1_frame,0,0,0,,0.02981963402420211,0.0005119679202535785,-0.49893852605795996,0.8661240526221531,"(0.0, 0.0, 0.0, 0.0, 0.0, 0.0, 0.0, 0.0, 0.0)",0.062309,-0.047845,0.005272,"(0.0, 0.0, 0.0, 0.0, 0.0, 0.0, 0.0, 0.0, 0.0)",-0.054,-0.321,-9.967,"(0.0, 0.0, 0.0, 0.0, 0.0, 0.0, 0.0, 0.0, 0.0)",0,0,0,,0.1865,-0.1012,0.0892,"(0.0, 0.0, 0.0, 0.0, 0.0, 0.0, 0.0, 0.0, 0.0)","$VNYMR,-059.844,+001.756,+002.933,+00.1865,-00.1012,+00.0892,-00.054,-00.321,-09.967,+00.062309,-00.047845,+00.005272"
1712109951.1547086,32751,1712109951,154105663,imu1_frame,0,0,0,,0.030048503193514098,-0.00038413429550026267,-0.4989059550304172,0.866134970966916,"(0.0, 0.0, 0.0, 0.0, 0.0, 0.0, 0.0, 0.0, 0.0)",0.037583,-0.051989,0.003865,"(0.0, 0.0, 0.0, 0.0, 0.0, 0.0, 0.0, 0.0, 0.0)",0.389,-0.843,-10.239,"(0.0, 0.0, 0.0, 0.0, 0.0, 0.0, 0.0, 0.0, 0.0)",0,0,0,,0.1867,-0.1036,0.0898,"(0.0, 0.0, 0.0, 0.0, 0.0, 0.0, 0.0, 0.0, 0.0)","$VNYMR,-059.841,+001.680,+003.007,+00.1867,-00.1036,+00.0898,+00.389,-00.843,-10.239,+00.037583,-00.051989,+00.003865"
1712109951.1799185,32752,1712109951,179174423,imu1_frame,0,0,0,,0.029969806056266497,-0.0010622406275358365,-0.4988580999591437,0.8661646947751637,"(0.0, 0.0, 0.0, 0.0, 0.0, 0.0, 0.0, 0.0, 0.0)",0.004686,-0.049663,0.007116,"(0.0, 0.0, 0.0, 0.0, 0.0, 0.0, 0.0, 0.0, 0.0)",0.1,-1.094,-9.819,"(0.0, 0.0, 0.0, 0.0, 0.0, 0.0, 0.0, 0.0, 0.0)",0,0,0,,0.1875,-0.1017,0.0913,"(0.0, 0.0, 0.0, 0.0, 0.0, 0.0, 0.0, 0.0, 0.0)","$VNYMR,-059.836,+001.608,+003.038,+00.1875,-00.1017,+00.0913,+00.100,-01.094,-09.819,+00.004686,-00.049663,+00.007116"
1712109951.204646,32753,1712109951,204065084,imu1_frame,0,0,0,,0.029715300610127948,-0.0016075415082138327,-0.49877271499798864,0.8662217934764078,"(0.0, 0.0, 0.0, 0.0, 0.0, 0.0, 0.0, 0.0, 0.0)",-0.005727,-0.045123,0.009149,"(0.0, 0.0, 0.0, 0.0, 0.0, 0.0, 0.0, 0.0, 0.0)",0.019,-1.02,-10.374,"(0.0, 0.0, 0.0, 0.0, 0.0, 0.0, 0.0, 0.0, 0.0)",0,0,0,,0.1865,-0.1007,0.0914,"(0.0, 0.0, 0.0, 0.0, 0.0, 0.0, 0.0, 0.0, 0.0)","$VNYMR,-059.826,+001.539,+003.044,+00.1865,-00.1007,+00.0914,+00.019,-01.020,-10.374,-00.005727,-00.045123,+00.009149"
1712109951.2299986,32754,1712109951,229141235,imu1_frame,0,0,0,,0.02931425625375053,-0.00198742707116285,-0.4986735575672046,0.8662917565677251,"(0.0, 0.0, 0.0, 0.0, 0.0, 0.0, 0.0, 0.0, 0.0)",-0.02585,-0.03955,0.010846,"(0.0, 0.0, 0.0, 0.0, 0.0, 0.0, 0.0, 0.0, 0.0)",0.032,-0.959,-10.052,"(0.0, 0.0, 0.0, 0.0, 0.0, 0.0, 0.0, 0.0, 0.0)",0,0,0,,0.1867,-0.102,0.0934,"(0.0, 0.0, 0.0, 0.0, 0.0, 0.0, 0.0, 0.0, 0.0)","$VNYMR,-059.814,+001.478,+003.026,+00.1867,-00.1020,+00.0934,+00.032,-00.959,-10.052,-00.025850,-00.039550,+00.010846"
1712109951.254721,32755,1712109951,254139184,imu1_frame,0,0,0,,0.028953523836747472,-0.0022798520950271725,-0.4985759923743012,0.8663593224291181,"(0.0, 0.0, 0.0, 0.0, 0.0, 0.0, 0.0, 0.0, 0.0)",-0.014761,-0.028541,0.006096,"(0.0, 0.0, 0.0, 0.0, 0.0, 0.0, 0.0, 0.0, 0.0)",0.032,-1.054,-10.256,"(0.0, 0.0, 0.0, 0.0, 0.0, 0.0, 0.0, 0.0, 0.0)",0,0,0,,0.1867,-0.1002,0.0929,"(0.0, 0.0, 0.0, 0.0, 0.0, 0.0, 0.0, 0.0, 0.0)","$VNYMR,-059.802,+001.428,+003.007,+00.1867,-00.1002,+00.0929,+00.032,-01.054,-10.256,-00.014761,-00.028541,+00.006096"
1712109951.2797396,32756,1712109951,279119253,imu1_frame,0,0,0,,0.028680554348336648,-0.002473700866645931,-0.49853346656682646,0.8663923414476593,"(0.0, 0.0, 0.0, 0.0, 0.0, 0.0, 0.0, 0.0, 0.0)",-0.012829,-0.021515,0.00093,"(0.0, 0.0, 0.0, 0.0, 0.0, 0.0, 0.0, 0.0, 0.0)",0.289,-1.028,-10.096,"(0.0, 0.0, 0.0, 0.0, 0.0, 0.0, 0.0, 0.0, 0.0)",0,0,0,,0.1867,-0.1017,0.0934,"(0.0, 0.0, 0.0, 0.0, 0.0, 0.0, 0.0, 0.0, 0.0)","$VNYMR,-059.797,+001.393,+002.991,+00.1867,-00.1017,+00.0934,+00.289,-01.028,-10.096,-00.012829,-00.021515,+00.000930"
1712109951.304615,32757,1712109951,303984403,imu1_frame,0,0,0,,0.02839058617648981,-0.0024885244712235226,-0.49854660255401045,0.8663942906923874,"(0.0, 0.0, 0.0, 0.0, 0.0, 0.0, 0.0, 0.0, 0.0)",-0.025316,-0.008161,-0.003783,"(0.0, 0.0, 0.0, 0.0, 0.0, 0.0, 0.0, 0.0, 0.0)",0.38,-0.842,-10.076,"(0.0, 0.0, 0.0, 0.0, 0.0, 0.0, 0.0, 0.0, 0.0)",0,0,0,,0.1872,-0.1002,0.0898,"(0.0, 0.0, 0.0, 0.0, 0.0, 0.0, 0.0, 0.0, 0.0)","$VNYMR,-059.799,+001.375,+002.963,+00.1872,-00.1002,+00.0898,+00.380,-00.842,-10.076,-00.025316,-00.008161,-00.003783"
1712109951.3297977,32758,1712109951,329101085,imu1_frame,0,0,0,,0.02795619298786256,-0.002231307177257386,-0.4986311047344006,0.866360487287629,"(0.0, 0.0, 0.0, 0.0, 0.0, 0.0, 0.0, 0.0, 0.0)",-0.045635,0.005115,-0.00877,"(0.0, 0.0, 0.0, 0.0, 0.0, 0.0, 0.0, 0.0, 0.0)",0.622,-0.806,-10.175,"(0.0, 0.0, 0.0, 0.0, 0.0, 0.0, 0.0, 0.0, 0.0)",0,0,0,,0.187,-0.1022,0.0926,"(0.0, 0.0, 0.0, 0.0, 0.0, 0.0, 0.0, 0.0, 0.0)","$VNYMR,-059.810,+001.376,+002.905,+00.1870,-00.1022,+00.0926,+00.622,-00.806,-10.175,-00.045635,+00.005115,-00.008770"
1712109951.3546813,32759,1712109951,354094028,imu1_frame,0,0,0,,0.027362191357019068,-0.0017635425140508,-0.4987855795578088,0.866291605654311,"(0.0, 0.0, 0.0, 0.0, 0.0, 0.0, 0.0, 0.0, 0.0)",-0.064571,0.010387,-0.014842,"(0.0, 0.0, 0.0, 0.0, 0.0, 0.0, 0.0, 0.0, 0.0)",0.53,-0.459,-9.791,"(0.0, 0.0, 0.0, 0.0, 0.0, 0.0, 0.0, 0.0, 0.0)",0,0,0,,0.187,-0.1007,0.0906,"(0.0, 0.0, 0.0, 0.0, 0.0, 0.0, 0.0, 0.0, 0.0)","$VNYMR,-059.830,+001.389,+002.819,+00.1870,-00.1007,+00.0906,+00.530,-00.459,-09.791,-00.064571,+00.010387,-00.014842"
1712109951.3807855,32760,1712109951,380077838,imu1_frame,0,0,0,,0.026781570149519655,-0.0012032342229151977,-0.49896359941024965,0.8662081887117552,"(0.0, 0.0, 0.0, 0.0, 0.0, 0.0, 0.0, 0.0, 0.0)",-0.064396,0.018117,-0.016835,"(0.0, 0.0, 0.0, 0.0, 0.0, 0.0, 0.0, 0.0, 0.0)",0.329,-0.688,-9.772,"(0.0, 0.0, 0.0, 0.0, 0.0, 0.0, 0.0, 0.0, 0.0)",0,0,0,,0.1875,-0.0987,0.0904,"(0.0, 0.0, 0.0, 0.0, 0.0, 0.0, 0.0, 0.0, 0.0)","$VNYMR,-059.853,+001.412,+002.729,+00.1875,-00.0987,+00.0904,+00.329,-00.688,-09.772,-00.064396,+00.018117,-00.016835"
1712109951.40497,32761,1712109951,403996467,imu1_frame,0,0,0,,0.02622405614286702,-0.0005858633426158791,-0.49915696275741417,0.8661144740589165,"(0.0, 0.0, 0.0, 0.0, 0.0, 0.0, 0.0, 0.0, 0.0)",-0.063795,0.021286,-0.018459,"(0.0, 0.0, 0.0, 0.0, 0.0, 0.0, 0.0, 0.0, 0.0)",0.326,-0.723,-9.834,"(0.0, 0.0, 0.0, 0.0, 0.0, 0.0, 0.0, 0.0, 0.0)",0,0,0,,0.1862,-0.0994,0.0931,"(0.0, 0.0, 0.0, 0.0, 0.0, 0.0, 0.0, 0.0, 0.0)","$VNYMR,-059.878,+001.442,+002.638,+00.1862,-00.0994,+00.0931,+00.326,-00.723,-09.834,-00.063795,+00.021286,-00.018459"
1712109951.4297605,32762,1712109951,429071187,imu1_frame,0,0,0,,0.025681918287742442,2.348974593258113e-05,-0.4993344851296233,0.8660285852566462,"(0.0, 0.0, 0.0, 0.0, 0.0, 0.0, 0.0, 0.0, 0.0)",-0.065154,0.019245,-0.015321,"(0.0, 0.0, 0.0, 0.0, 0.0, 0.0, 0.0, 0.0, 0.0)",0.04,-0.614,-9.56,"(0.0, 0.0, 0.0, 0.0, 0.0, 0.0, 0.0, 0.0, 0.0)",0,0,0,,0.1867,-0.1007,0.0943,"(0.0, 0.0, 0.0, 0.0, 0.0, 0.0, 0.0, 0.0, 0.0)","$VNYMR,-059.901,+001.472,+002.549,+00.1867,-00.1007,+00.0943,+00.040,-00.614,-09.560,-00.065154,+00.019245,-00.015321"
1712109951.4547226,32763,1712109951,454060792,imu1_frame,0,0,0,,0.025132159961521454,0.000569047777901786,-0.49944257071221326,0.8659821991707863,"(0.0, 0.0, 0.0, 0.0, 0.0, 0.0, 0.0, 0.0, 0.0)",-0.062498,0.014604,-0.007813,"(0.0, 0.0, 0.0, 0.0, 0.0, 0.0, 0.0, 0.0, 0.0)",0.184,-0.331,-9.883,"(0.0, 0.0, 0.0, 0.0, 0.0, 0.0, 0.0, 0.0, 0.0)",0,0,0,,0.1872,-0.1005,0.0909,"(0.0, 0.0, 0.0, 0.0, 0.0, 0.0, 0.0, 0.0, 0.0)","$VNYMR,-059.915,+001.495,+002.463,+00.1872,-00.1005,+00.0909,+00.184,-00.331,-09.883,-00.062498,+00.014604,-00.007813"
1712109951.480621,32764,1712109951,479935407,imu1_frame,0,0,0,,0.024577802977372935,0.001039406803501286,-0.49945864930794265,0.8659883999602929,"(0.0, 0.0, 0.0, 0.0, 0.0, 0.0, 0.0, 0.0, 0.0)",-0.0522,0.006048,0.00359,"(0.0, 0.0, 0.0, 0.0, 0.0, 0.0, 0.0, 0.0, 0.0)",0.115,0.237,-9.281,"(0.0, 0.0, 0.0, 0.0, 0.0, 0.0, 0.0, 0.0, 0.0)",0,0,0,,0.1857,-0.0991,0.0928,"(0.0, 0.0, 0.0, 0.0, 0.0, 0.0, 0.0, 0.0, 0.0)","$VNYMR,-059.917,+001.510,+002.381,+00.1857,-00.0991,+00.0928,+00.115,+00.237,-09.281,-00.052200,+00.006048,+00.003590"
1712109951.5046492,32765,1712109951,503995656,imu1_frame,0,0,0,,0.024264593317049412,0.0012332037205582506,-0.4993449686270577,0.8660625329770275,"(0.0, 0.0, 0.0, 0.0, 0.0, 0.0, 0.0, 0.0, 0.0)",-0.018406,-0.00128,0.011831,"(0.0, 0.0, 0.0, 0.0, 0.0, 0.0, 0.0, 0.0, 0.0)",0.236,0.158,-9.449,"(0.0, 0.0, 0.0, 0.0, 0.0, 0.0, 0.0, 0.0, 0.0)",0,0,0,,0.1865,-0.0997,0.0909,"(0.0, 0.0, 0.0, 0.0, 0.0, 0.0, 0.0, 0.0, 0.0)","$VNYMR,-059.902,+001.511,+002.339,+00.1865,-00.0997,+00.0909,+00.236,+00.158,-09.449,-00.018406,-00.001280,+00.011831"
1712109951.5309846,32766,1712109951,530005931,imu1_frame,0,0,0,,0.024287736891672657,0.001103144772030452,-0.4991927371067438,0.8661498139052912,"(0.0, 0.0, 0.0, 0.0, 0.0, 0.0, 0.0, 0.0, 0.0)",0.012753,-0.011984,0.01389,"(0.0, 0.0, 0.0, 0.0, 0.0, 0.0, 0.0, 0.0, 0.0)",-0.07,0.202,-10.018,"(0.0, 0.0, 0.0, 0.0, 0.0, 0.0, 0.0, 0.0, 0.0)",0,0,0,,0.187,-0.1015,0.0943,"(0.0, 0.0, 0.0, 0.0, 0.0, 0.0, 0.0, 0.0, 0.0)","$VNYMR,-059.882,+001.499,+002.349,+00.1870,-00.1015,+00.0943,-00.070,+00.202,-10.018,+00.012753,-00.011984,+00.013890"
1712109951.5546372,32767,1712109951,553936481,imu1_frame,0,0,0,,0.024414176131150343,0.0008051605303490382,-0.4989563648401861,0.8662827746791603,"(0.0, 0.0, 0.0, 0.0, 0.0, 0.0, 0.0, 0.0, 0.0)",0.014203,-0.015974,0.022067,"(0.0, 0.0, 0.0, 0.0, 0.0, 0.0, 0.0, 0.0, 0.0)",0.128,-0.015,-9.838,"(0.0, 0.0, 0.0, 0.0, 0.0, 0.0, 0.0, 0.0, 0.0)",0,0,0,,0.1863,-0.0999,0.0897,"(0.0, 0.0, 0.0, 0.0, 0.0, 0.0, 0.0, 0.0, 0.0)","$VNYMR,-059.851,+001.476,+002.379,+00.1863,-00.0999,+00.0897,+00.128,-00.015,-09.838,+00.014203,-00.015974,+00.022067"
1712109951.580563,32768,1712109951,579896926,imu1_frame,0,0,0,,0.024342110758365454,0.0006520083191805526,-0.49871241780173636,0.8664253925522534,"(0.0, 0.0, 0.0, 0.0, 0.0, 0.0, 0.0, 0.0, 0.0)",-0.002692,-0.010087,0.021273,"(0.0, 0.0, 0.0, 0.0, 0.0, 0.0, 0.0, 0.0, 0.0)",1.103,-0.24,-9.991,"(0.0, 0.0, 0.0, 0.0, 0.0, 0.0, 0.0, 0.0, 0.0)",0,0,0,,0.1875,-0.103,0.0932,"(0.0, 0.0, 0.0, 0.0, 0.0, 0.0, 0.0, 0.0, 0.0)","$VNYMR,-059.819,+001.456,+002.381,+00.1875,-00.1030,+00.0932,+01.103,-00.240,-09.991,-00.002692,-00.010087,+00.021273"
1712109951.6049216,32769,1712109951,603921175,imu1_frame,0,0,0,,0.024043850112500705,0.0008384809973643673,-0.4985383446161043,0.8665337322740643,"(0.0, 0.0, 0.0, 0.0, 0.0, 0.0, 0.0, 0.0, 0.0)",-0.024247,0.001669,0.017476,"(0.0, 0.0, 0.0, 0.0, 0.0, 0.0, 0.0, 0.0, 0.0)",0.33,0.058,-9.584,"(0.0, 0.0, 0.0, 0.0, 0.0, 0.0, 0.0, 0.0, 0.0)",0,0,0,,0.187,-0.1012,0.0912,"(0.0, 0.0, 0.0, 0.0, 0.0, 0.0, 0.0, 0.0, 0.0)","$VNYMR,-059.796,+001.457,+002.341,+00.1870,-00.1012,+00.0912,+00.330,+00.058,-09.584,-00.024247,+00.001669,+00.017476"
1712109951.6309693,32770,1712109951,629905939,imu1_frame,0,0,0,,0.023756514582754684,0.0010776787447986866,-0.4984101186486277,0.866615151178459,"(0.0, 0.0, 0.0, 0.0, 0.0, 0.0, 0.0, 0.0, 0.0)",-0.024243,0.005883,0.011497,"(0.0, 0.0, 0.0, 0.0, 0.0, 0.0, 0.0, 0.0, 0.0)",0.669,-0.246,-9.77,"(0.0, 0.0, 0.0, 0.0, 0.0, 0.0, 0.0, 0.0, 0.0)",0,0,0,,0.187,-0.0997,0.092,"(0.0, 0.0, 0.0, 0.0, 0.0, 0.0, 0.0, 0.0, 0.0)","$VNYMR,-059.779,+001.464,+002.299,+00.1870,-00.0997,+00.0920,+00.669,-00.246,-09.770,-00.024243,+00.005883,+00.011497"
1712109951.6545162,32771,1712109951,653815269,imu1_frame,0,0,0,,0.023581830618055098,0.001371350967258718,-0.4983359270464136,0.8666621720578428,"(0.0, 0.0, 0.0, 0.0, 0.0, 0.0, 0.0, 0.0, 0.0)",-0.015112,0.016225,0.003582,"(0.0, 0.0, 0.0, 0.0, 0.0, 0.0, 0.0, 0.0, 0.0)",1.164,-0.452,-9.702,"(0.0, 0.0, 0.0, 0.0, 0.0, 0.0, 0.0, 0.0, 0.0)",0,0,0,,0.1865,-0.1015,0.0929,"(0.0, 0.0, 0.0, 0.0, 0.0, 0.0, 0.0, 0.0, 0.0)","$VNYMR,-059.769,+001.483,+002.265,+00.1865,-00.1015,+00.0929,+01.164,-00.452,-09.702,-00.015112,+00.016225,+00.003582"
1712109951.6809876,32772,1712109951,679881334,imu1_frame,0,0,0,,0.023670017794267303,0.0016124881198237486,-0.49833854612344747,0.866657846896485,"(0.0, 0.0, 0.0, 0.0, 0.0, 0.0, 0.0, 0.0, 0.0)",0.007945,0.017116,-0.002521,"(0.0, 0.0, 0.0, 0.0, 0.0, 0.0, 0.0, 0.0, 0.0)",0.444,-0.469,-9.461,"(0.0, 0.0, 0.0, 0.0, 0.0, 0.0, 0.0, 0.0, 0.0)",0,0,0,,0.1865,-0.1023,0.0895,"(0.0, 0.0, 0.0, 0.0, 0.0, 0.0, 0.0, 0.0, 0.0)","$VNYMR,-059.769,+001.512,+002.260,+00.1865,-00.1023,+00.0895,+00.444,-00.469,-09.461,+00.007945,+00.017116,-00.002521"
1712109951.705516,32773,1712109951,704782962,imu1_frame,0,0,0,,0.024119949871053176,0.0015548387160457186,-0.4983486333556711,0.866639746450231,"(0.0, 0.0, 0.0, 0.0, 0.0, 0.0, 0.0, 0.0, 0.0)",0.050445,0.011635,-0.000419,"(0.0, 0.0, 0.0, 0.0, 0.0, 0.0, 0.0, 0.0, 0.0)",0.432,-0.28,-9.727,"(0.0, 0.0, 0.0, 0.0, 0.0, 0.0, 0.0, 0.0, 0.0)",0,0,0,,0.1862,-0.0992,0.0914,"(0.0, 0.0, 0.0, 0.0, 0.0, 0.0, 0.0, 0.0, 0.0)","$VNYMR,-059.770,+001.532,+002.308,+00.1862,-00.0992,+00.0914,+00.432,-00.280,-09.727,+00.050445,+00.011635,-00.000419"
1712109951.730491,32774,1712109951,729802608,imu1_frame,0,0,0,,0.02478038303641423,0.0012847116586982964,-0.4983885141630012,0.8665986216714858,"(0.0, 0.0, 0.0, 0.0, 0.0, 0.0, 0.0, 0.0, 0.0)",0.055768,0.003479,-0.006448,"(0.0, 0.0, 0.0, 0.0, 0.0, 0.0, 0.0, 0.0, 0.0)",0.314,-0.218,-9.557,"(0.0, 0.0, 0.0, 0.0, 0.0, 0.0, 0.0, 0.0, 0.0)",0,0,0,,0.1857,-0.1012,0.0922,"(0.0, 0.0, 0.0, 0.0, 0.0, 0.0, 0.0, 0.0, 0.0)","$VNYMR,-059.775,+001.543,+002.389,+00.1857,-00.1012,+00.0922,+00.314,-00.218,-09.557,+00.055768,+00.003479,-00.006448"
1712109951.7554395,32775,1712109951,754825830,imu1_frame,0,0,0,,0.02551717626760354,0.0008502508439854253,-0.49841201171477156,0.8665642603796128,"(0.0, 0.0, 0.0, 0.0, 0.0, 0.0, 0.0, 0.0, 0.0)",0.065691,-0.002682,-0.003189,"(0.0, 0.0, 0.0, 0.0, 0.0, 0.0, 0.0, 0.0, 0.0)",0.304,-0.192,-9.883,"(0.0, 0.0, 0.0, 0.0, 0.0, 0.0, 0.0, 0.0, 0.0)",0,0,0,,0.1852,-0.0997,0.0919,"(0.0, 0.0, 0.0, 0.0, 0.0, 0.0, 0.0, 0.0, 0.0)","$VNYMR,-059.778,+001.542,+002.487,+00.1852,-00.0997,+00.0919,+00.304,-00.192,-09.883,+00.065691,-00.002682,-00.003189"
1712109951.7804236,32776,1712109951,779807329,imu1_frame,0,0,0,,0.026112169080277144,0.00039687909687759725,-0.49842640286967704,0.8665385842738338,"(0.0, 0.0, 0.0, 0.0, 0.0, 0.0, 0.0, 0.0, 0.0)",0.055181,-0.011473,-3e-06,"(0.0, 0.0, 0.0, 0.0, 0.0, 0.0, 0.0, 0.0, 0.0)",0.249,-0.091,-9.623,"(0.0, 0.0, 0.0, 0.0, 0.0, 0.0, 0.0, 0.0, 0.0)",0,0,0,,0.185,-0.1015,0.093,"(0.0, 0.0, 0.0, 0.0, 0.0, 0.0, 0.0, 0.0, 0.0)","$VNYMR,-059.780,+001.531,+002.572,+00.1850,-00.1015,+00.0930,+00.249,-00.091,-09.623,+00.055181,-00.011473,-00.000003"
1712109951.8054047,32777,1712109951,804745912,imu1_frame,0,0,0,,0.026505055566276563,2.9075061355170878e-05,-0.4984551665967984,0.8665102007922515,"(0.0, 0.0, 0.0, 0.0, 0.0, 0.0, 0.0, 0.0, 0.0)",0.038209,-0.012491,-0.001844,"(0.0, 0.0, 0.0, 0.0, 0.0, 0.0, 0.0, 0.0, 0.0)",0.0,-0.525,-9.765,"(0.0, 0.0, 0.0, 0.0, 0.0, 0.0, 0.0, 0.0, 0.0)",0,0,0,,0.1853,-0.102,0.0883,"(0.0, 0.0, 0.0, 0.0, 0.0, 0.0, 0.0, 0.0, 0.0)","$VNYMR,-059.784,+001.517,+002.632,+00.1853,-00.1020,+00.0883,+00.000,-00.525,-09.765,+00.038209,-00.012491,-00.001844"
1712109951.8308194,32778,1712109951,829811811,imu1_frame,0,0,0,,0.026679759040101305,-0.00019289077119602135,-0.4984764213010254,0.8664925912306668,"(0.0, 0.0, 0.0, 0.0, 0.0, 0.0, 0.0, 0.0, 0.0)",0.023665,-0.008449,-0.000923,"(0.0, 0.0, 0.0, 0.0, 0.0, 0.0, 0.0, 0.0, 0.0)",0.091,-0.793,-9.91,"(0.0, 0.0, 0.0, 0.0, 0.0, 0.0, 0.0, 0.0, 0.0)",0,0,0,,0.186,-0.1025,0.0914,"(0.0, 0.0, 0.0, 0.0, 0.0, 0.0, 0.0, 0.0, 0.0)","$VNYMR,-059.787,+001.505,+002.662,+00.1860,-00.1025,+00.0914,+00.091,-00.793,-09.910,+00.023665,-00.008449,-00.000923"
1712109951.8554213,32779,1712109951,854797601,imu1_frame,0,0,0,,0.026638729404209284,-0.00016015623960078003,-0.4985067949535945,0.866476386193417,"(0.0, 0.0, 0.0, 0.0, 0.0, 0.0, 0.0, 0.0, 0.0)",-0.016541,0.003735,-0.002338,"(0.0, 0.0, 0.0, 0.0, 0.0, 0.0, 0.0, 0.0, 0.0)",0.156,-1.053,-9.899,"(0.0, 0.0, 0.0, 0.0, 0.0, 0.0, 0.0, 0.0, 0.0)",0,0,0,,0.186,-0.1025,0.0895,"(0.0, 0.0, 0.0, 0.0, 0.0, 0.0, 0.0, 0.0, 0.0)","$VNYMR,-059.791,+001.506,+002.656,+00.1860,-00.1025,+00.0895,+00.156,-01.053,-09.899,-00.016541,+00.003735,-00.002338"
1712109951.880624,32780,1712109951,879719734,imu1_frame,0,0,0,,0.02635400339877593,0.00018458218618709436,-0.49851644374950216,0.866479536830284,"(0.0, 0.0, 0.0, 0.0, 0.0, 0.0, 0.0, 0.0, 0.0)",-0.052744,0.019067,-0.003567,"(0.0, 0.0, 0.0, 0.0, 0.0, 0.0, 0.0, 0.0, 0.0)",0.635,-1.386,-10.433,"(0.0, 0.0, 0.0, 0.0, 0.0, 0.0, 0.0, 0.0, 0.0)",0,0,0,,0.1857,-0.101,0.0925,"(0.0, 0.0, 0.0, 0.0, 0.0, 0.0, 0.0, 0.0, 0.0)","$VNYMR,-059.792,+001.524,+002.608,+00.1857,-00.1010,+00.0925,+00.635,-01.386,-10.433,-00.052744,+00.019067,-00.003567"
1712109951.905276,32781,1712109951,904616594,imu1_frame,0,0,0,,0.025810622757539415,0.00091991400965445,-0.4985206160336005,0.8664930241499712,"(0.0, 0.0, 0.0, 0.0, 0.0, 0.0, 0.0, 0.0, 0.0)",-0.07667,0.033264,-0.001384,"(0.0, 0.0, 0.0, 0.0, 0.0, 0.0, 0.0, 0.0, 0.0)",0.691,-1.123,-10.008,"(0.0, 0.0, 0.0, 0.0, 0.0, 0.0, 0.0, 0.0, 0.0)",0,0,0,,0.1852,-0.1009,0.0933,"(0.0, 0.0, 0.0, 0.0, 0.0, 0.0, 0.0, 0.0, 0.0)","$VNYMR,-059.792,+001.566,+002.512,+00.1852,-00.1009,+00.0933,+00.691,-01.123,-10.008,-00.076670,+00.033264,-00.001384"
1712109951.9301517,32782,1712109951,929563760,imu1_frame,0,0,0,,0.02520291989876379,0.0018935469745386766,-0.4985254778437492,0.8665065350296519,"(0.0, 0.0, 0.0, 0.0, 0.0, 0.0, 0.0, 0.0, 0.0)",-0.087834,0.048494,-0.001554,"(0.0, 0.0, 0.0, 0.0, 0.0, 0.0, 0.0, 0.0, 0.0)",0.67,-1.212,-10.1,"(0.0, 0.0, 0.0, 0.0, 0.0, 0.0, 0.0, 0.0, 0.0)",0,0,0,,0.1852,-0.1028,0.0925,"(0.0, 0.0, 0.0, 0.0, 0.0, 0.0, 0.0, 0.0, 0.0)","$VNYMR,-059.792,+001.628,+002.396,+00.1852,-00.1028,+00.0925,+00.670,-01.212,-10.100,-00.087834,+00.048494,-00.001554"
1712109951.9553635,32783,1712109951,954687118,imu1_frame,0,0,0,,0.024647562551173875,0.003028099264368693,-0.4985378238560613,0.8665121848306544,"(0.0, 0.0, 0.0, 0.0, 0.0, 0.0, 0.0, 0.0, 0.0)",-0.081653,0.060006,-0.005315,"(0.0, 0.0, 0.0, 0.0, 0.0, 0.0, 0.0, 0.0, 0.0)",0.807,-1.127,-9.921,"(0.0, 0.0, 0.0, 0.0, 0.0, 0.0, 0.0, 0.0, 0.0)",0,0,0,,0.185,-0.1022,0.0908,"(0.0, 0.0, 0.0, 0.0, 0.0, 0.0, 0.0, 0.0, 0.0)","$VNYMR,-059.793,+001.709,+002.276,+00.1850,-00.1022,+00.0908,+00.807,-01.127,-09.921,-00.081653,+00.060006,-00.005315"
1712109951.980417,32784,1712109951,979666709,imu1_frame,0,0,0,,0.024240628519092994,0.004228067197445801,-0.49855717230939706,0.8665075079395629,"(0.0, 0.0, 0.0, 0.0, 0.0, 0.0, 0.0, 0.0, 0.0)",-0.069315,0.069312,-0.005389,"(0.0, 0.0, 0.0, 0.0, 0.0, 0.0, 0.0, 0.0, 0.0)",0.492,-0.551,-9.541,"(0.0, 0.0, 0.0, 0.0, 0.0, 0.0, 0.0, 0.0, 0.0)",0,0,0,,0.1843,-0.0999,0.0913,"(0.0, 0.0, 0.0, 0.0, 0.0, 0.0, 0.0, 0.0, 0.0)","$VNYMR,-059.795,+001.805,+002.167,+00.1843,-00.0999,+00.0913,+00.492,-00.551,-09.541,-00.069315,+00.069312,-00.005389"
1712109952.005475,32785,1712109952,4667282,imu1_frame,0,0,0,,0.0240686033699686,0.005362271608376207,-0.49862142968153256,0.8664690520943967,"(0.0, 0.0, 0.0, 0.0, 0.0, 0.0, 0.0, 0.0, 0.0)",-0.048295,0.075196,-0.009961,"(0.0, 0.0, 0.0, 0.0, 0.0, 0.0, 0.0, 0.0, 0.0)",0.689,-0.197,-9.784,"(0.0, 0.0, 0.0, 0.0, 0.0, 0.0, 0.0, 0.0, 0.0)",0,0,0,,0.1845,-0.0999,0.0902,"(0.0, 0.0, 0.0, 0.0, 0.0, 0.0, 0.0, 0.0, 0.0)","$VNYMR,-059.803,+001.908,+002.085,+00.1845,-00.0999,+00.0902,+00.689,-00.197,-09.784,-00.048295,+00.075196,-00.009961"
1712109952.0303912,32786,1712109952,29660701,imu1_frame,0,0,0,,0.024016857607907165,0.00640634596097352,-0.49872255967260554,0.8664051925950552,"(0.0, 0.0, 0.0, 0.0, 0.0, 0.0, 0.0, 0.0, 0.0)",-0.035288,0.064238,-0.010195,"(0.0, 0.0, 0.0, 0.0, 0.0, 0.0, 0.0, 0.0, 0.0)",0.365,0.5,-9.628,"(0.0, 0.0, 0.0, 0.0, 0.0, 0.0, 0.0, 0.0, 0.0)",0,0,0,,0.185,-0.0994,0.093,"(0.0, 0.0, 0.0, 0.0, 0.0, 0.0, 0.0, 0.0, 0.0)","$VNYMR,-059.816,+002.009,+002.020,+00.1850,-00.0994,+00.0930,+00.365,+00.500,-09.628,-00.035288,+00.064238,-00.010195"
1712109952.0552406,32787,1712109952,54587841,imu1_frame,0,0,0,,0.02404162777863787,0.007285883793283036,-0.4988152035635921,0.8663442206911274,"(0.0, 0.0, 0.0, 0.0, 0.0, 0.0, 0.0, 0.0, 0.0)",-0.036883,0.05556,-0.010926,"(0.0, 0.0, 0.0, 0.0, 0.0, 0.0, 0.0, 0.0, 0.0)",0.567,0.207,-10.042,"(0.0, 0.0, 0.0, 0.0, 0.0, 0.0, 0.0, 0.0, 0.0)",0,0,0,,0.1842,-0.1007,0.0935,"(0.0, 0.0, 0.0, 0.0, 0.0, 0.0, 0.0, 0.0, 0.0)","$VNYMR,-059.828,+002.098,+001.972,+00.1842,-00.1007,+00.0935,+00.567,+00.207,-10.042,-00.036883,+00.055560,-00.010926"
1712109952.0805502,32788,1712109952,79548597,imu1_frame,0,0,0,,0.023973114246499373,0.007967225096845453,-0.498921036877525,0.866279176754605,"(0.0, 0.0, 0.0, 0.0, 0.0, 0.0, 0.0, 0.0, 0.0)",-0.027247,0.037426,-0.009988,"(0.0, 0.0, 0.0, 0.0, 0.0, 0.0, 0.0, 0.0, 0.0)",0.672,0.011,-10.088,"(0.0, 0.0, 0.0, 0.0, 0.0, 0.0, 0.0, 0.0, 0.0)",0,0,0,,0.1842,-0.1038,0.0936,"(0.0, 0.0, 0.0, 0.0, 0.0, 0.0, 0.0, 0.0, 0.0)","$VNYMR,-059.842,+002.162,+001.926,+00.1842,-00.1038,+00.0936,+00.672,+00.011,-10.088,-00.027247,+00.037426,-00.009988"
1712109952.1059446,32789,1712109952,104644775,imu1_frame,0,0,0,,0.023943540265108185,0.008456587273602276,-0.49895863739917656,0.8662536990835971,"(0.0, 0.0, 0.0, 0.0, 0.0, 0.0, 0.0, 0.0, 0.0)",-0.018514,0.024512,-0.001825,"(0.0, 0.0, 0.0, 0.0, 0.0, 0.0, 0.0, 0.0, 0.0)",0.742,-0.069,-9.762,"(0.0, 0.0, 0.0, 0.0, 0.0, 0.0, 0.0, 0.0, 0.0)",0,0,0,,0.1845,-0.101,0.091,"(0.0, 0.0, 0.0, 0.0, 0.0, 0.0, 0.0, 0.0, 0.0)","$VNYMR,-059.847,+002.209,+001.895,+00.1845,-00.1010,+00.0910,+00.742,-00.069,-09.762,-00.018514,+00.024512,-00.001825"
1712109952.1302269,32790,1712109952,129579305,imu1_frame,0,0,0,,0.02400583465180684,0.008723062096043479,-0.4989440521215376,0.8662577335544426,"(0.0, 0.0, 0.0, 0.0, 0.0, 0.0, 0.0, 0.0, 0.0)",-0.000262,0.017077,0.001535,"(0.0, 0.0, 0.0, 0.0, 0.0, 0.0, 0.0, 0.0, 0.0)",0.834,-0.287,-10.002,"(0.0, 0.0, 0.0, 0.0, 0.0, 0.0, 0.0, 0.0, 0.0)",0,0,0,,0.1843,-0.1009,0.0927,"(0.0, 0.0, 0.0, 0.0, 0.0, 0.0, 0.0, 0.0, 0.0)","$VNYMR,-059.845,+002.239,+001.886,+00.1843,-00.1009,+00.0927,+00.834,-00.287,-10.002,-00.000262,+00.017077,+00.001535"
1712109952.15519,32791,1712109952,154552936,imu1_frame,0,0,0,,0.0241568720536131,0.008849145931675947,-0.49886989370201607,0.8662949655322977,"(0.0, 0.0, 0.0, 0.0, 0.0, 0.0, 0.0, 0.0, 0.0)",0.017596,0.010833,0.007164,"(0.0, 0.0, 0.0, 0.0, 0.0, 0.0, 0.0, 0.0, 0.0)",1.427,0.002,-9.563,"(0.0, 0.0, 0.0, 0.0, 0.0, 0.0, 0.0, 0.0, 0.0)",0,0,0,,0.184,-0.1022,0.0924,"(0.0, 0.0, 0.0, 0.0, 0.0, 0.0, 0.0, 0.0, 0.0)","$VNYMR,-059.835,+002.260,+001.894,+00.1840,-00.1022,+00.0924,+01.427,+00.002,-09.563,+00.017596,+00.010833,+00.007164"
1712109952.1801553,32792,1712109952,179524898,imu1_frame,0,0,0,,0.02444138882702681,0.008858800318696772,-0.49876689233795896,0.8663461936643196,"(0.0, 0.0, 0.0, 0.0, 0.0, 0.0, 0.0, 0.0, 0.0)",0.025258,0.007103,0.011248,"(0.0, 0.0, 0.0, 0.0, 0.0, 0.0, 0.0, 0.0, 0.0)",0.694,-0.108,-9.771,"(0.0, 0.0, 0.0, 0.0, 0.0, 0.0, 0.0, 0.0, 0.0)",0,0,0,,0.1843,-0.1017,0.0921,"(0.0, 0.0, 0.0, 0.0, 0.0, 0.0, 0.0, 0.0, 0.0)","$VNYMR,-059.821,+002.277,+001.922,+00.1843,-00.1017,+00.0921,+00.694,-00.108,-09.771,+00.025258,+00.007103,+00.011248"
1712109952.2054322,32793,1712109952,204582691,imu1_frame,0,0,0,,0.02473819224021069,0.008751588603187177,-0.49862625573915864,0.866419810847579,"(0.0, 0.0, 0.0, 0.0, 0.0, 0.0, 0.0, 0.0, 0.0)",0.020277,0.002939,0.014811,"(0.0, 0.0, 0.0, 0.0, 0.0, 0.0, 0.0, 0.0, 0.0)",1.12,-0.433,-10.325,"(0.0, 0.0, 0.0, 0.0, 0.0, 0.0, 0.0, 0.0, 0.0)",0,0,0,,0.1845,-0.1022,0.0899,"(0.0, 0.0, 0.0, 0.0, 0.0, 0.0, 0.0, 0.0, 0.0)","$VNYMR,-059.802,+002.283,+001.958,+00.1845,-00.1022,+00.0899,+01.120,-00.433,-10.325,+00.020277,+00.002939,+00.014811"
1712109952.2302437,32794,1712109952,229389429,imu1_frame,0,0,0,,0.024846404344285714,0.008633085099250164,-0.4984458880582353,0.8665216804619875,"(0.0, 0.0, 0.0, 0.0, 0.0, 0.0, 0.0, 0.0, 0.0)",0.009508,-0.007812,0.01653,"(0.0, 0.0, 0.0, 0.0, 0.0, 0.0, 0.0, 0.0, 0.0)",0.978,0.011,-9.713,"(0.0, 0.0, 0.0, 0.0, 0.0, 0.0, 0.0, 0.0, 0.0)",0,0,0,,0.184,-0.1007,0.0907,"(0.0, 0.0, 0.0, 0.0, 0.0, 0.0, 0.0, 0.0, 0.0)","$VNYMR,-059.778,+002.277,+001.976,+00.1840,-00.1007,+00.0907,+00.978,+00.011,-09.713,+00.009508,-00.007812,+00.016530"
1712109952.254977,32795,1712109952,254390001,imu1_frame,0,0,0,,0.02490928845418457,0.008469928759094547,-0.4982801298264461,0.8666168125969299,"(0.0, 0.0, 0.0, 0.0, 0.0, 0.0, 0.0, 0.0, 0.0)",-0.002211,-0.008541,0.019275,"(0.0, 0.0, 0.0, 0.0, 0.0, 0.0, 0.0, 0.0, 0.0)",0.676,-0.362,-9.963,"(0.0, 0.0, 0.0, 0.0, 0.0, 0.0, 0.0, 0.0, 0.0)",0,0,0,,0.1838,-0.1007,0.089,"(0.0, 0.0, 0.0, 0.0, 0.0, 0.0, 0.0, 0.0, 0.0)","$VNYMR,-059.756,+002.264,+001.992,+00.1838,-00.1007,+00.0890,+00.676,-00.362,-09.963,-00.002211,-00.008541,+00.019275"
1712109952.2802389,32796,1712109952,279481887,imu1_frame,0,0,0,,0.02487398998869843,0.008292301966097695,-0.4981360189233936,0.8667023877902369,"(0.0, 0.0, 0.0, 0.0, 0.0, 0.0, 0.0, 0.0, 0.0)",0.000268,-0.018253,0.012381,"(0.0, 0.0, 0.0, 0.0, 0.0, 0.0, 0.0, 0.0, 0.0)",0.82,-0.539,-10.097,"(0.0, 0.0, 0.0, 0.0, 0.0, 0.0, 0.0, 0.0, 0.0)",0,0,0,,0.183,-0.1027,0.0921,"(0.0, 0.0, 0.0, 0.0, 0.0, 0.0, 0.0, 0.0, 0.0)","$VNYMR,-059.737,+002.244,+001.999,+00.1830,-00.1027,+00.0921,+00.820,-00.539,-10.097,+00.000268,-00.018253,+00.012381"
1712109952.305357,32797,1712109952,304514646,imu1_frame,0,0,0,,0.024738253265741,0.00813198296684342,-0.49799845073808435,0.8667868438900392,"(0.0, 0.0, 0.0, 0.0, 0.0, 0.0, 0.0, 0.0, 0.0)",-0.012985,-0.020173,0.01226,"(0.0, 0.0, 0.0, 0.0, 0.0, 0.0, 0.0, 0.0, 0.0)",0.525,-0.608,-9.455,"(0.0, 0.0, 0.0, 0.0, 0.0, 0.0, 0.0, 0.0, 0.0)",0,0,0,,0.1833,-0.0997,0.0875,"(0.0, 0.0, 0.0, 0.0, 0.0, 0.0, 0.0, 0.0, 0.0)","$VNYMR,-059.719,+002.220,+001.995,+00.1833,-00.0997,+00.0875,+00.525,-00.608,-09.455,-00.012985,-00.020173,+00.012260"
1712109952.3300426,32798,1712109952,329410552,imu1_frame,0,0,0,,0.02451958121093753,0.007947989369049387,-0.4978978592347824,0.866852548806111,"(0.0, 0.0, 0.0, 0.0, 0.0, 0.0, 0.0, 0.0, 0.0)",-0.017945,-0.023264,0.007273,"(0.0, 0.0, 0.0, 0.0, 0.0, 0.0, 0.0, 0.0, 0.0)",0.779,-0.832,-10.134,"(0.0, 0.0, 0.0, 0.0, 0.0, 0.0, 0.0, 0.0, 0.0)",0,0,0,,0.1838,-0.103,0.0893,"(0.0, 0.0, 0.0, 0.0, 0.0, 0.0, 0.0, 0.0, 0.0)","$VNYMR,-059.706,+002.189,+001.984,+00.1838,-00.1030,+00.0893,+00.779,-00.832,-10.134,-00.017945,-00.023264,+00.007273"
1712109952.3550746,32799,1712109952,354422330,imu1_frame,0,0,0,,0.024129537148919057,0.00783099298795983,-0.49784864690307506,0.8668928225349308,"(0.0, 0.0, 0.0, 0.0, 0.0, 0.0, 0.0, 0.0, 0.0)",-0.02546,-0.028227,0.003668,"(0.0, 0.0, 0.0, 0.0, 0.0, 0.0, 0.0, 0.0, 0.0)",0.867,-0.045,-9.609,"(0.0, 0.0, 0.0, 0.0, 0.0, 0.0, 0.0, 0.0, 0.0)",0,0,0,,0.1833,-0.1028,0.0873,"(0.0, 0.0, 0.0, 0.0, 0.0, 0.0, 0.0, 0.0, 0.0)","$VNYMR,-059.700,+002.155,+001.952,+00.1833,-00.1028,+00.0873,+00.867,-00.045,-09.609,-00.025460,-00.028227,+00.003668"
1712109952.3801723,32800,1712109952,379339694,imu1_frame,0,0,0,,0.023752060044319703,0.007785872627047727,-0.4978601812879904,0.8668970294786896,"(0.0, 0.0, 0.0, 0.0, 0.0, 0.0, 0.0, 0.0, 0.0)",-0.027322,-0.015801,-0.005252,"(0.0, 0.0, 0.0, 0.0, 0.0, 0.0, 0.0, 0.0, 0.0)",0.612,0.004,-9.254,"(0.0, 0.0, 0.0, 0.0, 0.0, 0.0, 0.0, 0.0, 0.0)",0,0,0,,0.1835,-0.1012,0.0907,"(0.0, 0.0, 0.0, 0.0, 0.0, 0.0, 0.0, 0.0, 0.0)","$VNYMR,-059.702,+002.129,+001.917,+00.1835,-00.1012,+00.0907,+00.612,+00.004,-09.254,-00.027322,-00.015801,-00.005252"
1712109952.4050741,32801,1712109952,404356002,imu1_frame,0,0,0,,0.023571537517847144,0.007816293985224796,-0.49798710390723555,0.8668287792346684,"(0.0, 0.0, 0.0, 0.0, 0.0, 0.0, 0.0, 0.0, 0.0)",-0.001878,0.002041,-0.016107,"(0.0, 0.0, 0.0, 0.0, 0.0, 0.0, 0.0, 0.0, 0.0)",1.092,-0.321,-9.285,"(0.0, 0.0, 0.0, 0.0, 0.0, 0.0, 0.0, 0.0, 0.0)",0,0,0,,0.1821,-0.1028,0.0897,"(0.0, 0.0, 0.0, 0.0, 0.0, 0.0, 0.0, 0.0, 0.0)","$VNYMR,-059.719,+002.122,+001.897,+00.1821,-00.1028,+00.0897,+01.092,-00.321,-09.285,-00.001878,+00.002041,-00.016107"
1712109952.4299717,32802,1712109952,429333209,imu1_frame,0,0,0,,0.023623751786350927,0.007883909197611852,-0.4981237736887368,0.8667482151198199,"(0.0, 0.0, 0.0, 0.0, 0.0, 0.0, 0.0, 0.0, 0.0)",0.010486,0.008563,-0.013728,"(0.0, 0.0, 0.0, 0.0, 0.0, 0.0, 0.0, 0.0, 0.0)",0.562,0.129,-9.677,"(0.0, 0.0, 0.0, 0.0, 0.0, 0.0, 0.0, 0.0, 0.0)",0,0,0,,0.1828,-0.1043,0.0895,"(0.0, 0.0, 0.0, 0.0, 0.0, 0.0, 0.0, 0.0, 0.0)","$VNYMR,-059.737,+002.132,+001.898,+00.1828,-00.1043,+00.0895,+00.562,+00.129,-09.677,+00.010486,+00.008563,-00.013728"
1712109952.4549842,32803,1712109952,454306125,imu1_frame,0,0,0,,0.023717035109550744,0.007988620537262339,-0.49824570525262124,0.8666746225573024,"(0.0, 0.0, 0.0, 0.0, 0.0, 0.0, 0.0, 0.0, 0.0)",-0.013675,0.008351,-0.011827,"(0.0, 0.0, 0.0, 0.0, 0.0, 0.0, 0.0, 0.0, 0.0)",1.248,-0.393,-10.482,"(0.0, 0.0, 0.0, 0.0, 0.0, 0.0, 0.0, 0.0, 0.0)",0,0,0,,0.1833,-0.1041,0.0859,"(0.0, 0.0, 0.0, 0.0, 0.0, 0.0, 0.0, 0.0, 0.0)","$VNYMR,-059.753,+002.148,+001.901,+00.1833,-00.1041,+00.0859,+01.248,-00.393,-10.482,-00.013675,+00.008351,-00.011827"
1712109952.4798868,32804,1712109952,479275703,imu1_frame,0,0,0,,0.023686881880420327,0.008124551914813144,-0.4983437709387398,0.8666177988303284,"(0.0, 0.0, 0.0, 0.0, 0.0, 0.0, 0.0, 0.0, 0.0)",-0.000608,0.006402,-0.005235,"(0.0, 0.0, 0.0, 0.0, 0.0, 0.0, 0.0, 0.0, 0.0)",0.786,-0.396,-9.631,"(0.0, 0.0, 0.0, 0.0, 0.0, 0.0, 0.0, 0.0, 0.0)",0,0,0,,0.1828,-0.1015,0.0889,"(0.0, 0.0, 0.0, 0.0, 0.0, 0.0, 0.0, 0.0, 0.0)","$VNYMR,-059.766,+002.160,+001.890,+00.1828,-00.1015,+00.0889,+00.786,-00.396,-09.631,-00.000608,+00.006402,-00.005235"
1712109952.5051215,32805,1712109952,504280567,imu1_frame,0,0,0,,0.023649096254737725,0.008287827872064479,-0.49831317892422006,0.8666348757498371,"(0.0, 0.0, 0.0, 0.0, 0.0, 0.0, 0.0, 0.0, 0.0)",-0.00875,0.010108,0.006837,"(0.0, 0.0, 0.0, 0.0, 0.0, 0.0, 0.0, 0.0, 0.0)",1.424,-0.004,-9.864,"(0.0, 0.0, 0.0, 0.0, 0.0, 0.0, 0.0, 0.0, 0.0)",0,0,0,,0.1823,-0.1025,0.0855,"(0.0, 0.0, 0.0, 0.0, 0.0, 0.0, 0.0, 0.0, 0.0)","$VNYMR,-059.762,+002.174,+001.877,+00.1823,-00.1025,+00.0855,+01.424,-00.004,-09.864,-00.008750,+00.010108,+00.006837"
1712109952.529994,32806,1712109952,529315233,imu1_frame,0,0,0,,0.023503242868294544,0.00847281329590641,-0.498289066298519,0.8666509190076921,"(0.0, 0.0, 0.0, 0.0, 0.0, 0.0, 0.0, 0.0, 0.0)",-0.026234,0.003182,0.003046,"(0.0, 0.0, 0.0, 0.0, 0.0, 0.0, 0.0, 0.0, 0.0)",0.73,-0.48,-9.827,"(0.0, 0.0, 0.0, 0.0, 0.0, 0.0, 0.0, 0.0, 0.0)",0,0,0,,0.1821,-0.1028,0.0889,"(0.0, 0.0, 0.0, 0.0, 0.0, 0.0, 0.0, 0.0, 0.0)","$VNYMR,-059.759,+002.184,+001.852,+00.1821,-00.1028,+00.0889,+00.730,-00.480,-09.827,-00.026234,+00.003182,+00.003046"
1712109952.555041,32807,1712109952,554350614,imu1_frame,0,0,0,,0.023381262123636115,0.008615801157718076,-0.4981743967523866,0.8667187288690101,"(0.0, 0.0, 0.0, 0.0, 0.0, 0.0, 0.0, 0.0, 0.0)",-0.006154,0.006444,0.010489,"(0.0, 0.0, 0.0, 0.0, 0.0, 0.0, 0.0, 0.0, 0.0)",1.181,-0.441,-9.521,"(0.0, 0.0, 0.0, 0.0, 0.0, 0.0, 0.0, 0.0, 0.0)",0,0,0,,0.1818,-0.1028,0.0883,"(0.0, 0.0, 0.0, 0.0, 0.0, 0.0, 0.0, 0.0, 0.0)","$VNYMR,-059.744,+002.191,+001.832,+00.1818,-00.1028,+00.0883,+01.181,-00.441,-09.521,-00.006154,+00.006444,+00.010489"
1712109952.5799134,32808,1712109952,579248905,imu1_frame,0,0,0,,0.023430056087874344,0.008741260484000176,-0.49805378677456386,0.8667854684501741,"(0.0, 0.0, 0.0, 0.0, 0.0, 0.0, 0.0, 0.0, 0.0)",0.003485,0.007041,0.008262,"(0.0, 0.0, 0.0, 0.0, 0.0, 0.0, 0.0, 0.0, 0.0)",0.84,0.213,-9.268,"(0.0, 0.0, 0.0, 0.0, 0.0, 0.0, 0.0, 0.0, 0.0)",0,0,0,,0.1823,-0.1046,0.0881,"(0.0, 0.0, 0.0, 0.0, 0.0, 0.0, 0.0, 0.0, 0.0)","$VNYMR,-059.728,+002.206,+001.830,+00.1823,-00.1046,+00.0881,+00.840,+00.213,-09.268,+00.003485,+00.007041,+00.008262"
1712109952.6053252,32809,1712109952,604355335,imu1_frame,0,0,0,,0.023641127268816866,0.008762950690851765,-0.49795750420030593,0.8668348353678756,"(0.0, 0.0, 0.0, 0.0, 0.0, 0.0, 0.0, 0.0, 0.0)",0.020025,0.00816,0.009257,"(0.0, 0.0, 0.0, 0.0, 0.0, 0.0, 0.0, 0.0, 0.0)",0.717,-0.121,-9.737,"(0.0, 0.0, 0.0, 0.0, 0.0, 0.0, 0.0, 0.0, 0.0)",0,0,0,,0.1826,-0.1033,0.0884,"(0.0, 0.0, 0.0, 0.0, 0.0, 0.0, 0.0, 0.0, 0.0)","$VNYMR,-059.715,+002.220,+001.850,+00.1826,-00.1033,+00.0884,+00.717,-00.121,-09.737,+00.020025,+00.008160,+00.009257"
1712109952.6302216,32810,1712109952,629182577,imu1_frame,0,0,0,,0.023909639337356955,0.008761426139787717,-0.497876936059978,0.866873764223075,"(0.0, 0.0, 0.0, 0.0, 0.0, 0.0, 0.0, 0.0, 0.0)",0.025197,0.007549,0.000621,"(0.0, 0.0, 0.0, 0.0, 0.0, 0.0, 0.0, 0.0, 0.0)",1.083,-0.007,-9.81,"(0.0, 0.0, 0.0, 0.0, 0.0, 0.0, 0.0, 0.0, 0.0)",0,0,0,,0.1821,-0.1015,0.0852,"(0.0, 0.0, 0.0, 0.0, 0.0, 0.0, 0.0, 0.0, 0.0)","$VNYMR,-059.704,+002.235,+001.877,+00.1821,-00.1015,+00.0852,+01.083,-00.007,-09.810,+00.025197,+00.007549,+00.000621"
1712109952.6549392,32811,1712109952,654214859,imu1_frame,0,0,0,,0.024204985021544535,0.008732473164655098,-0.49788742716062917,0.8668598343953337,"(0.0, 0.0, 0.0, 0.0, 0.0, 0.0, 0.0, 0.0, 0.0)",0.022274,0.006144,-0.0006,"(0.0, 0.0, 0.0, 0.0, 0.0, 0.0, 0.0, 0.0, 0.0)",0.608,-0.167,-9.659,"(0.0, 0.0, 0.0, 0.0, 0.0, 0.0, 0.0, 0.0, 0.0)",0,0,0,,0.1823,-0.1004,0.0878,"(0.0, 0.0, 0.0, 0.0, 0.0, 0.0, 0.0, 0.0, 0.0)","$VNYMR,-059.705,+002.249,+001.908,+00.1823,-00.1004,+00.0878,+00.608,-00.167,-09.659,+00.022274,+00.006144,-00.000600"
1712109952.679946,32812,1712109952,679250955,imu1_frame,0,0,0,,0.02450335506814355,0.008621462404108621,-0.497890404096465,0.8668508530797429,"(0.0, 0.0, 0.0, 0.0, 0.0, 0.0, 0.0, 0.0, 0.0)",0.013678,-0.000823,-0.001253,"(0.0, 0.0, 0.0, 0.0, 0.0, 0.0, 0.0, 0.0, 0.0)",0.672,-0.745,-10.289,"(0.0, 0.0, 0.0, 0.0, 0.0, 0.0, 0.0, 0.0, 0.0)",0,0,0,,0.1831,-0.1015,0.0878,"(0.0, 0.0, 0.0, 0.0, 0.0, 0.0, 0.0, 0.0, 0.0)","$VNYMR,-059.705,+002.255,+001.944,+00.1831,-00.1015,+00.0878,+00.672,-00.745,-10.289,+00.013678,-00.000823,-00.001253"
1712109952.7049294,32813,1712109952,704264640,imu1_frame,0,0,0,,0.024676079323599824,0.008502479789073963,-0.49787698039844674,0.8668548386759903,"(0.0, 0.0, 0.0, 0.0, 0.0, 0.0, 0.0, 0.0, 0.0)",0.01613,-0.007225,0.003463,"(0.0, 0.0, 0.0, 0.0, 0.0, 0.0, 0.0, 0.0, 0.0)",0.945,-0.99,-10.201,"(0.0, 0.0, 0.0, 0.0, 0.0, 0.0, 0.0, 0.0, 0.0)",0,0,0,,0.1824,-0.1025,0.0844,"(0.0, 0.0, 0.0, 0.0, 0.0, 0.0, 0.0, 0.0, 0.0)","$VNYMR,-059.703,+002.253,+001.968,+00.1824,-00.1025,+00.0844,+00.945,-00.990,-10.201,+00.016130,-00.007225,+00.003463"
1712109952.7298043,32814,1712109952,729220151,imu1_frame,0,0,0,,0.024600533506816902,0.008356281327193339,-0.49780811516591233,0.8668979563873266,"(0.0, 0.0, 0.0, 0.0, 0.0, 0.0, 0.0, 0.0, 0.0)",-0.001168,-0.01911,0.010486,"(0.0, 0.0, 0.0, 0.0, 0.0, 0.0, 0.0, 0.0, 0.0)",0.978,-1.051,-10.678,"(0.0, 0.0, 0.0, 0.0, 0.0, 0.0, 0.0, 0.0, 0.0)",0,0,0,,0.1826,-0.1007,0.0861,"(0.0, 0.0, 0.0, 0.0, 0.0, 0.0, 0.0, 0.0, 0.0)","$VNYMR,-059.694,+002.234,+001.969,+00.1826,-00.1007,+00.0861,+00.978,-01.051,-10.678,-00.001168,-00.019110,+00.010486"
1712109952.7549386,32815,1712109952,754168272,imu1_frame,0,0,0,,0.024261543922333866,0.00819169168001674,-0.49767613881000194,0.8669848525395888,"(0.0, 0.0, 0.0, 0.0, 0.0, 0.0, 0.0, 0.0, 0.0)",-0.023423,-0.03135,0.016679,"(0.0, 0.0, 0.0, 0.0, 0.0, 0.0, 0.0, 0.0, 0.0)",0.866,-1.224,-10.233,"(0.0, 0.0, 0.0, 0.0, 0.0, 0.0, 0.0, 0.0, 0.0)",0,0,0,,0.1833,-0.101,0.0839,"(0.0, 0.0, 0.0, 0.0, 0.0, 0.0, 0.0, 0.0, 0.0)","$VNYMR,-059.677,+002.198,+001.945,+00.1833,-00.1010,+00.0839,+00.866,-01.224,-10.233,-00.023423,-00.031350,+00.016679"
1712109952.7799063,32816,1712109952,779214859,imu1_frame,0,0,0,,0.02366003598095267,0.008028619212797268,-0.4974584672826124,0.8671279128823788,"(0.0, 0.0, 0.0, 0.0, 0.0, 0.0, 0.0, 0.0, 0.0)",-0.03764,-0.03831,0.020282,"(0.0, 0.0, 0.0, 0.0, 0.0, 0.0, 0.0, 0.0, 0.0)",1.225,-0.976,-10.309,"(0.0, 0.0, 0.0, 0.0, 0.0, 0.0, 0.0, 0.0, 0.0)",0,0,0,,0.1836,-0.1023,0.0865,"(0.0, 0.0, 0.0, 0.0, 0.0, 0.0, 0.0, 0.0, 0.0)","$VNYMR,-059.649,+002.147,+001.895,+00.1836,-00.1023,+00.0865,+01.225,-00.976,-10.309,-00.037640,-00.038310,+00.020282"
1712109952.8049123,32817,1712109952,804225444,imu1_frame,0,0,0,,0.02283360094797082,0.007893680647289429,-0.49723882961353616,0.867277269849815,"(0.0, 0.0, 0.0, 0.0, 0.0, 0.0, 0.0, 0.0, 0.0)",-0.055376,-0.047491,0.020481,"(0.0, 0.0, 0.0, 0.0, 0.0, 0.0, 0.0, 0.0, 0.0)",0.86,-0.569,-10.122,"(0.0, 0.0, 0.0, 0.0, 0.0, 0.0, 0.0, 0.0, 0.0)",0,0,0,,0.1841,-0.0989,0.0823,"(0.0, 0.0, 0.0, 0.0, 0.0, 0.0, 0.0, 0.0, 0.0)","$VNYMR,-059.621,+002.086,+001.821,+00.1841,-00.0989,+00.0823,+00.860,-00.569,-10.122,-00.055376,-00.047491,+00.020481"
1712109952.82986,32818,1712109952,829111099,imu1_frame,0,0,0,,0.021905774995516644,0.007755505999170534,-0.4970487672449709,0.867411385750036,"(0.0, 0.0, 0.0, 0.0, 0.0, 0.0, 0.0, 0.0, 0.0)",-0.064204,-0.049418,0.016476,"(0.0, 0.0, 0.0, 0.0, 0.0, 0.0, 0.0, 0.0, 0.0)",0.687,-0.56,-9.953,"(0.0, 0.0, 0.0, 0.0, 0.0, 0.0, 0.0, 0.0, 0.0)",0,0,0,,0.1841,-0.1018,0.0831,"(0.0, 0.0, 0.0, 0.0, 0.0, 0.0, 0.0, 0.0, 0.0)","$VNYMR,-059.597,+002.019,+001.737,+00.1841,-00.1018,+00.0831,+00.687,-00.560,-09.953,-00.064204,-00.049418,+00.016476"
1712109952.8547568,32819,1712109952,854143857,imu1_frame,0,0,0,,0.020949200616408897,0.007582124253187802,-0.4969117283089185,0.8675150584597286,"(0.0, 0.0, 0.0, 0.0, 0.0, 0.0, 0.0, 0.0, 0.0)",-0.054845,-0.05025,0.009648,"(0.0, 0.0, 0.0, 0.0, 0.0, 0.0, 0.0, 0.0, 0.0)",0.845,-0.22,-9.865,"(0.0, 0.0, 0.0, 0.0, 0.0, 0.0, 0.0, 0.0, 0.0)",0,0,0,,0.1841,-0.101,0.0862,"(0.0, 0.0, 0.0, 0.0, 0.0, 0.0, 0.0, 0.0, 0.0)","$VNYMR,-059.580,+001.947,+001.652,+00.1841,-00.1010,+00.0862,+00.845,-00.220,-09.865,-00.054845,-00.050250,+00.009648"
1712109952.8798537,32820,1712109952,879175186,imu1_frame,0,0,0,,0.02006050211399125,0.007418202751525946,-0.49686641472818877,0.867563434244452,"(0.0, 0.0, 0.0, 0.0, 0.0, 0.0, 0.0, 0.0, 0.0)",-0.05149,-0.048352,0.002248,"(0.0, 0.0, 0.0, 0.0, 0.0, 0.0, 0.0, 0.0, 0.0)",0.487,0.084,-9.662,"(0.0, 0.0, 0.0, 0.0, 0.0, 0.0, 0.0, 0.0, 0.0)",0,0,0,,0.1849,-0.1002,0.0818,"(0.0, 0.0, 0.0, 0.0, 0.0, 0.0, 0.0, 0.0, 0.0)","$VNYMR,-059.575,+001.880,+001.573,+00.1849,-00.1002,+00.0818,+00.487,+00.084,-09.662,-00.051490,-00.048352,+00.002248"
